File: tensile_tests/04.03.25_BslA_idx0_slipped.csv
,Time,Force (Newtons),Distance (millimeters)
0,22,0.016971,0.0
2,58,0.016971,0.0
4,89,0.0160442,0.0
6,120,0.0160442,0.0
8,149,0.0160442,0.0
10,175,0.0151832,0.0
12,204,0.0151832,0.0
14,230,0.0151832,0.0
16,260,0.0151832,0.0
18,287,0.014433,0.0
20,313,0.014433,0.0
22,343,0.014433,0.0
24,370,0.0137593,0.0
26,398,0.0137593,0.0
28,425,0.0137593,0.0
30,454,0.0131581,0.0
32,481,0.0131581,0.0
34,507,0.0131581,0.0
36,534,0.0131581,0.0
38,563,0.0126717,0.0
40,595,0.0126717,0.0
42,623,0.0126717,0.0
44,650,0.0122579,0.0
46,678,0.0122579,0.0
48,708,0.0122579,0.0
50,735,0.0122579,0.0
52,761,0.0118548,0.0
54,792,0.0118548,0.0
56,819,0.0118548,0.0
58,846,0.0113586,0.0
60,875,0.0113586,0.0
62,903,0.0113586,0.0
64,929,0.0108291,0.0
66,956,0.0108291,0.0
68,986,0.0108291,0.0
70,1012,0.0108291,0.0
72,1042,0.0103319,0.0
74,1071,0.0103319,0.0
76,1100,0.0103319,0.0
78,1125,0.00989056,0.0
80,1154,0.00989056,0.0
82,1180,0.00989056,0.0
84,1211,0.00989056,0.0
86,1240,0.00955419,0.0
88,1269,0.00955419,0.0
90,1295,0.00955419,0.0
92,1369,0.00934433,0.0
94,1397,0.00934433,0.0
96,1425,0.00908445,0.0
98,1453,0.00908445,0.0
100,1481,0.00908445,0.0
102,1508,0.00879809,0.0
104,1534,0.00879809,0.0
106,1561,0.00879809,0.0
108,1590,0.00879809,0.0
110,1618,0.00863825,0.0
112,1645,0.00863825,0.0
114,1675,0.00863825,0.0
116,1705,0.00847742,0.0
118,1733,0.00847742,0.0
120,1763,0.00847742,0.0
122,1792,0.00829599,0.0
124,1826,0.00829599,0.0
126,1855,0.00829599,0.0
128,1883,0.00813026,0.0
130,1914,0.00813026,0.0
132,1941,0.00813026,0.0
134,1971,0.00813026,0.0
136,2001,0.00789294,0.0
138,2030,0.00789294,0.0
140,2061,0.00789294,0.0
142,2090,0.0076007,0.0
144,2119,0.0076007,0.0
146,2145,0.0076007,0.0
148,2176,0.00736338,0.0
150,2208,0.00736338,0.0
152,2236,0.00736338,0.0
154,2266,0.00710939,0.0
156,2294,0.00710939,0.0
158,2323,0.00710939,0.0
160,2351,0.00710939,0.0
162,2379,0.00678871,0.0
164,2411,0.00678871,0.0
166,2441,0.00678871,0.0
168,2474,0.00655728,0.0
170,2501,0.00655728,0.0
172,2529,0.00655728,0.0
174,2556,0.0063582,0.0
176,2583,0.0063582,0.0
178,2612,0.0063582,0.0
180,2642,0.00617089,0.0
182,2674,0.00617089,0.0
184,2704,0.00617089,0.0
186,2734,0.00617089,0.0
188,2763,0.00602183,0.0
190,2794,0.00602183,0.0
192,2827,0.00602183,0.0
194,2857,0.00580707,0.0
196,2886,0.00580707,0.0
198,2916,0.00580707,0.0
200,2945,0.00568546,0.0
202,2971,0.00568546,0.0
204,2999,0.00568546,0.0
206,3029,0.00552562,0.0
208,3059,0.00552562,0.0
210,3089,0.00552562,0.0
212,3120,0.00532066,0.0
214,3146,0.00532066,0.0
216,3175,0.00532066,0.0
218,3206,0.00532066,0.0
220,3234,0.00510001,0.0
222,3264,0.00510001,0.0
224,3293,0.00510001,0.0
226,3323,0.00478521,0.0
228,3350,0.00478521,0.0
230,3378,0.00478521,0.0
232,3408,0.00464204,0.0
234,3440,0.00464204,0.0
236,3470,0.00464204,0.0
238,3498,0.00455966,0.0
240,3526,0.00455966,0.0
242,3552,0.00455966,0.0
244,3580,0.00455966,0.0
246,3609,0.00444394,0.0
248,3637,0.00444394,0.0
250,3667,0.00444394,0.0
252,3695,0.00433901,0.0
254,3726,0.00433901,0.0
256,3757,0.00433901,0.0
258,3788,0.00416739,0.0
260,3818,0.00416739,0.0
262,3847,0.00416739,0.0
264,3876,0.00416739,0.0
266,3909,0.00392517,0.0
268,3936,0.00392517,0.0
270,3963,0.00392517,0.0
272,3992,0.00375355,0.0
274,4023,0.00375355,0.0
276,4053,0.00375355,0.0
278,4082,0.00362116,0.0
280,4109,0.00362116,0.0
282,4138,0.00362116,0.0
284,4167,0.00349956,0.0
286,4198,0.00349956,0.0
288,4227,0.00349956,0.0
290,4256,0.00349956,0.0
292,4282,0.00339463,0.0
294,4311,0.00339463,0.0
296,4342,0.00339463,0.0
298,4373,0.00331225,0.0
300,4405,0.00331225,0.0
302,4436,0.00331225,0.0
304,4464,0.00312495,0.0
306,4494,0.00312495,0.0
308,4522,0.00312495,0.0
310,4550,0.00282683,0.0
312,4578,0.00282683,0.0
314,4610,0.00282683,0.0
316,4641,0.00265031,0.0
318,4672,0.00265031,0.0
320,4705,0.00265031,0.0
322,4736,0.00251203,0.0
324,4764,0.00251203,0.0
326,4794,0.00251203,0.0
328,4821,0.00251203,0.0
330,4851,0.0023463,0.0
332,4878,0.0023463,0.0
334,4908,0.0023463,0.0
336,4938,0.00217566,0.0
338,4966,0.00217566,0.0
340,4994,0.00217566,0.0
342,5026,0.001905,0.0
344,5056,0.001905,0.0
346,5084,0.001905,0.0
348,5111,0.001905,0.0
350,5142,0.00160688,0.0
352,5175,0.00160688,0.0
354,5206,0.00160688,0.0
356,5238,0.00144703,0.0
358,5266,0.00144703,0.0
360,5294,0.00144703,0.0
362,5325,0.00138034,0.0
364,5354,0.00138034,0.0
366,5383,0.00138034,0.0
368,5411,0.00136367,0.0
370,5443,0.00136367,0.0
372,5472,0.00136367,0.0
374,5499,0.00127541,0.0
376,5525,0.00127541,0.0
378,5551,0.00127541,0.0
380,5579,0.00127541,0.0
382,5612,0.00121461,0.0
384,5641,0.00121461,0.0
386,5666,0.00121461,0.0
388,5696,0.0011597,0.0
390,5720,0.0011597,0.0
392,5749,0.0011597,0.0
394,5778,0.0011597,0.0
396,5806,0.00101063,0.0
398,5838,0.00101063,0.0
400,5867,0.00101063,0.0
402,5895,0.000878244,0.0
404,5925,0.000878244,0.0
406,5954,0.000878244,0.0
408,5981,0.000685053,0.0
410,6008,0.000685053,0.0
412,6036,0.000685053,0.0
414,6065,0.000685053,0.0
416,6095,0.000486959,0.0
418,6127,0.000486959,0.0
420,6154,0.000486959,0.0
422,6179,0.000315343,0.0
424,6208,0.000315343,0.0
426,6242,0.000315343,0.0
428,6270,0.000122152,0.0
430,6297,0.000122152,0.0
432,6326,0.000122152,0.0
434,6359,-8.77107e-05,0.0
436,6388,-8.77107e-05,0.0
438,6418,-8.77107e-05,0.0
440,6446,-8.77107e-05,0.0
442,6473,-0.000280902,0.0
444,6503,-0.000280902,0.0
446,6532,-0.000280902,0.0
448,6562,-0.000357394,0.0
450,6593,-0.000357394,0.0
452,6622,-0.000357394,0.0
454,6651,-0.000335819,0.0
456,6682,-0.000335819,0.0
458,6712,-0.000335819,0.0
460,6741,-0.000413291,0.0
462,6768,-0.000413291,0.0
464,6796,-0.000413291,0.0
466,6824,-0.000413291,0.0
468,6852,-0.000534894,0.0
470,6878,-0.000534894,0.0
472,6906,-0.000534894,0.0
474,6933,-0.000644728,0.0
476,6962,-0.000644728,0.0
478,6990,-0.000644728,0.0
480,7018,-0.000644728,0.0
482,7046,-0.000804577,0.0
484,7077,-0.000804577,0.0
486,7104,-0.000804577,0.0
488,7133,-0.000965406,0.0
490,7160,-0.000965406,0.0
492,7186,-0.000965406,0.0
494,7212,-0.0010978,0.0
496,7240,-0.0010978,0.0
498,7269,-0.0010978,0.0
500,7319,-0.00125176,9.765625e-05
502,7373,-0.00125176,0.0001953125
504,7416,-0.00141161,0.000390625
506,7457,-0.00141161,0.000683594
508,7498,-0.00106445,0.00107422
510,7543,-0.00106445,0.00146484
512,7590,0.000216295,0.00205078
514,7634,0.000216295,0.00263672
516,7709,0.00219135,0.00390625
518,7802,0.00581785,0.005859375
520,7840,0.00581785,0.00664063
522,7881,0.01159,0.00771484
524,7919,0.01159,0.00869141
526,7965,0.01159,0.0100586
528,8011,0.0195099,0.0114258
530,8077,0.0309611,0.0135742
532,8126,0.0309611,0.015332
534,8189,0.0467724,0.0176758
536,8234,0.0467724,0.0194336
538,8280,0.0675507,0.0213867
540,8325,0.0675507,0.0233398
542,8367,0.0931912,0.025293
544,8418,0.0931912,0.0277344
546,8466,0.122866,0.0301758
548,8565,0.154776,0.0353516
550,8608,0.154776,0.037793
552,8655,0.188639,0.0405273
554,8699,0.188639,0.0431641
556,8741,0.226581,0.0458008
558,8784,0.226581,0.0485352
560,8857,0.270307,0.0533203
562,8899,0.270307,0.05625
564,8942,0.320423,0.0592773
566,8988,0.320423,0.0625977
568,9036,0.374105,0.0662109
570,9078,0.374105,0.0694336
572,9119,0.431191,0.0725586
574,9157,0.431191,0.0755859
576,9199,0.431191,0.0791016
578,9240,0.494635,0.0824219
580,9283,0.494635,0.0861328
582,9324,0.564399,0.0897461
584,9367,0.564399,0.093457
586,9406,0.641894,0.0970703
588,9445,0.641894,0.100684
590,9487,0.641894,0.10459
592,9530,0.730802,0.108789
594,9570,0.730802,0.112695
596,9612,0.825698,0.116797
598,9652,0.825698,0.120801
600,9691,0.921907,0.124707
602,9732,0.921907,0.128809
604,9774,0.921907,0.133008
606,9818,1.02256,0.137402
608,9859,1.02256,0.141504
610,9902,1.10467,0.145801
612,9944,1.10467,0.150098
614,9987,1.14522,0.154297
616,10030,1.14522,0.158496
618,10073,1.16686,0.162891
620,10116,1.16686,0.167188
622,10157,1.16686,0.171289
624,10199,1.18028,0.175488
626,10240,1.18028,0.17959
628,10280,1.20253,0.183594
630,10319,1.20253,0.187598
632,10414,1.24689,0.196973
634,10463,1.30114,0.201855
636,10504,1.30114,0.206055
638,10542,1.36577,0.209863
640,10585,1.36577,0.214063
642,10627,1.36577,0.218359
644,10671,1.43783,0.222754
646,10714,1.43783,0.227051
648,10756,1.52626,0.231152
650,10799,1.52626,0.235547
652,10840,1.62746,0.239648
654,10882,1.62746,0.243848
656,10922,1.72229,0.247852
658,10966,1.72229,0.252246
660,11007,1.72229,0.256348
662,11053,1.81537,0.26084
664,11109,1.81537,0.266504
666,11153,1.90504,0.270898
668,11195,1.90504,0.275098
670,11237,1.98584,0.279297
672,11325,2.06769,0.288086
674,11374,2.06769,0.293066
676,11418,2.14455,0.297363
678,11460,2.14455,0.3015625
680,11505,2.21994,0.306152
682,11546,2.21994,0.310254
684,11587,2.29642,0.314355
686,11632,2.29642,0.31875
688,11673,2.29642,0.322852
690,11717,2.36334,0.327344
692,11757,2.36334,0.33125
694,11801,2.4304,0.335742
696,11843,2.4304,0.339941
698,11889,2.49403,0.344434
700,11929,2.49403,0.348535
702,11971,2.55323,0.352637
704,12015,2.55323,0.357031
706,12057,2.55323,0.36123
708,12099,2.61719,0.36543
710,12142,2.61719,0.369824
712,12189,2.67425,0.374414
714,12275,2.731,0.383105
716,12318,2.731,0.387402
718,12357,2.7909,0.391309
720,12401,2.7909,0.395703
722,12440,2.7909,0.399609
724,12486,2.84538,0.404199
726,12524,2.84538,0.408008
728,12569,2.90441,0.412402
730,12607,2.90441,0.416211
732,12648,2.9591,0.42041
734,12690,2.9591,0.424609
736,12734,3.00804,0.429004
738,12774,3.00804,0.433008
740,12817,3.00804,0.437305
742,12858,3.06059,0.441406
744,12902,3.06059,0.445801
746,12947,3.10829,0.450195
748,12990,3.10829,0.45459
750,13033,3.15901,0.458887
752,13074,3.15901,0.463086
754,13117,3.20952,0.467285
756,13205,3.20952,0.476074
758,13249,3.2528,0.480566
760,13292,3.2528,0.484766
762,13337,3.29976,0.489258
764,13381,3.29976,0.49375
766,13423,3.343,0.497949
768,13468,3.343,0.502441
770,13515,3.38491,0.507129
772,13559,3.38491,0.511426
774,13603,3.42226,0.51582
776,13643,3.42226,0.519922
778,13688,3.44931,0.524316
780,13732,3.44931,0.528809
782,13774,3.44931,0.533008
784,13819,3.4804,0.5375
786,13866,3.4804,0.5421875
788,13908,3.51208,0.546387
790,13951,3.51208,0.550684
792,13992,3.5481,0.554785
794,14036,3.5481,0.559277
796,14077,3.59062,0.563281
798,14176,3.62397,0.573145
800,14222,3.62397,0.577832
802,14268,3.65499,0.582422
804,14315,3.65499,0.587012
806,14358,3.68733,0.591406
808,14404,3.68733,0.595996
810,14448,3.7137,0.600293
812,14489,3.7137,0.604492
814,14534,3.7137,0.608887
816,14577,3.7429,0.613281
818,14620,3.7429,0.617578
820,14666,3.76605,0.622168
822,14707,3.76605,0.62627
824,14751,3.78341,0.630664
826,14793,3.78341,0.634961
828,14841,3.8043,0.639746
830,14891,3.8043,0.644629
832,14936,3.82132,0.649121
834,14981,3.82132,0.653711
836,15024,3.84376,0.65791
838,15119,3.86843,0.66748
840,15170,3.86843,0.672656
842,15218,3.88737,0.677344
844,15257,3.88737,0.681348
846,15304,3.91,0.6859375
848,15347,3.91,0.690332
850,15390,3.91,0.694531
852,15436,3.9281,0.699219
854,15486,3.9281,0.704199
856,15536,3.94367,0.70918
858,15585,3.95956,0.71416
860,15634,3.95956,0.718945
862,15676,3.95956,0.723145
864,15722,3.9658,0.727734
866,15766,3.9658,0.732227
868,15807,3.97362,0.736328
870,15853,3.97362,0.740918
872,15897,3.98124,0.745312
874,15943,3.98124,0.749902
876,15988,3.9872,0.754395
878,16069,4.00009,0.7625
880,16113,4.00009,0.766797
882,16214,4.0081,0.776953
884,16257,4.01573,0.781348
886,16301,4.01573,0.785645
888,16346,4.02611,0.790234
890,16392,4.02611,0.794727
892,16439,4.02611,0.799512
894,16484,4.02947,0.804004
896,16529,4.02947,0.808496
898,16575,4.03627,0.813086
900,16621,4.03627,0.817676
902,16663,4.03984,0.821875
904,16708,4.03984,0.826367
906,16753,4.03938,0.830859
908,16795,4.03938,0.835059
910,16841,4.04348,0.839648
912,16886,4.04348,0.844141
914,16932,4.03826,0.848828
916,16975,4.03826,0.853125
918,17020,4.02933,0.857617
920,17120,4.01652,0.867578
922,17168,4.01652,0.872363
924,17211,3.99691,0.87666
926,17258,3.99691,0.881348
928,17304,3.98724,0.886035
930,17351,3.98724,0.890625
932,17394,3.98124,0.894922
934,17441,3.98124,0.899609
936,17488,3.98124,0.904395
938,17531,3.9792,0.908691
940,17576,3.9792,0.913184
942,17621,3.98346,0.917676
944,17669,3.98346,0.922461
946,17712,3.98047,0.926758
948,17757,3.98047,0.93125
950,17801,3.97976,0.935645
952,17846,3.97976,0.940137
954,17890,3.98022,0.944629
956,17937,3.98022,0.949219
958,17982,3.97859,0.953711
960,18028,3.97859,0.958398
962,18129,3.98332,0.968457
964,18175,3.98396,0.973145
966,18223,3.98396,0.977832
968,18269,3.98508,0.982422
970,18314,3.98508,0.986914
972,18360,3.98938,0.991504
974,18406,3.98938,0.996191
976,18455,3.98835,1.00107
978,18503,3.98835,1.00586
980,18544,3.99171,1.00996
982,18589,3.99171,1.01445
984,18635,3.99123,1.01904
986,18678,3.99123,1.02334
988,18722,3.99123,1.02773
990,18768,3.98588,1.03232
992,18809,3.98588,1.03652
994,18854,3.98521,1.04102
996,18901,3.98521,1.04561
998,18945,3.9784,1.0501
1000,18991,3.9784,1.05469
1002,19088,3.97381,1.06436
1004,19135,3.97163,1.06904
1006,19178,3.97163,1.07344
1008,19222,3.96553,1.07773
1010,19266,3.96553,1.08213
1012,19309,3.9679,1.08643
1014,19354,3.9679,1.09092
1016,19397,3.97046,1.09521
1018,19439,3.97046,1.09951
1020,19486,3.97046,1.1041
1022,19533,3.97274,1.10879
1024,19575,3.97274,1.11309
1026,19621,3.97655,1.11768
1028,19668,3.97655,1.12236
1030,19709,3.96938,1.12646
1032,19754,3.96938,1.13096
1034,19798,3.96172,1.13535
1036,19842,3.96172,1.13975
1038,19887,3.95237,1.14424
1040,19937,3.95237,1.14922
1042,20038,3.94125,1.159375
1044,20084,3.93922,1.16396
1046,20128,3.93922,1.16826
1048,20174,3.93376,1.17305
1050,20222,3.93376,1.17773
1052,20268,3.92713,1.18232
1054,20312,3.92713,1.18672
1056,20357,3.9222,1.19121
1058,20401,3.9222,1.1957
1060,20445,3.91043,1.2
1062,20491,3.91043,1.20459
1064,20539,3.90273,1.20947
1066,20586,3.90273,1.21416
1068,20635,3.89378,1.21904
1070,20679,3.89378,1.22344
1072,20727,3.88119,1.22822
1074,20776,3.88119,1.2332
1076,20819,3.88119,1.2375
1078,20862,3.87336,1.2418
1080,20909,3.87336,1.24639
1082,21005,3.86104,1.25605
1084,21051,3.85041,1.26064
1086,21094,3.85041,1.26494
1088,21139,3.83968,1.26943
1090,21186,3.83968,1.27412
1092,21233,3.82196,1.27881
1094,21276,3.82196,1.28311
1096,21323,3.80955,1.28779
1098,21368,3.80955,1.29238
1100,21417,3.79689,1.29727
1102,21460,3.79689,1.30156
1104,21507,3.78509,1.30625
1106,21554,3.78509,1.31094
1108,21601,3.7767,1.315625
1110,21645,3.7767,1.32002
1112,21690,3.7586,1.32451
1114,21734,3.7586,1.32891
1116,21778,3.74051,1.3334
1118,21823,3.74051,1.33779
1120,21866,3.74051,1.34209
1122,21967,3.70255,1.35225
1124,22014,3.70255,1.35693
1126,22061,3.69088,1.36172
1128,22112,3.69088,1.3667
1130,22157,3.6749,1.37129
1132,22203,3.6749,1.37578
1134,22251,3.65722,1.38057
1136,22299,3.65722,1.38545
1138,22346,3.63967,1.39014
1140,22393,3.63967,1.39482
1142,22440,3.61403,1.39951
1144,22490,3.61403,1.40449
1146,22537,3.59055,1.40928
1148,22584,3.59055,1.41387
1150,22635,3.56276,1.41904
1152,22680,3.56276,1.42354
1154,22726,3.52992,1.428125
1156,22773,3.52992,1.43281
1158,22822,3.50029,1.4377
1160,22870,3.50029,1.44258
1162,22967,3.46591,1.45225
1164,23012,3.43513,1.45674
1166,23057,3.43513,1.46123
1168,23103,3.43513,1.46582
1170,23152,3.4057,1.4707
1172,23199,3.4057,1.47549
1174,23247,3.37042,1.48018
1176,23292,3.37042,1.48467
1178,23344,3.33883,1.48994
1180,23388,3.33883,1.49434
1182,23431,3.30443,1.49863
1184,23511,3.26839,1.50664
1186,23559,3.26839,1.51143
1188,23636,3.23432,1.51914
1190,23686,3.19224,1.52412
1192,23733,3.19224,1.52881
1194,23780,3.14908,1.53359
1196,23825,3.14908,1.53799
1198,23872,3.10475,1.54277
1200,23921,3.10475,1.54756
1202,24024,3.05874,1.55791
1204,24072,3.01733,1.56279
1206,24122,3.01733,1.56768
1208,24167,2.97026,1.57217
1210,24214,2.97026,1.57695
1212,24262,2.91973,1.58174
1214,24309,2.91973,1.58643
1216,24355,2.86835,1.59102
1218,24403,2.86835,1.5958
1220,24449,2.81272,1.60049
1222,24496,2.81272,1.60508
1224,24544,2.76368,1.60986
1226,24591,2.76368,1.61465
1228,24639,2.71619,1.61943
1230,24689,2.71619,1.62441
1232,24736,2.6682,1.6291
1234,24781,2.6682,1.63359
1236,24825,2.62509,1.63799
1238,24876,2.62509,1.64316
1240,24924,2.57972,1.64795
1242,25021,2.53737,1.65762
1244,25077,2.53737,1.66318
1246,25122,2.4948,1.66777
1248,25170,2.4948,1.67246
1250,25218,2.4464,1.67734
1252,25265,2.4464,1.68193
1254,25314,2.39958,1.68701
1256,25358,2.39958,1.69131
1258,25404,2.3493,1.6959
1260,25453,2.3493,1.70078
1262,25503,2.29812,1.70586
1264,25550,2.29812,1.71055
1266,25597,2.24697,1.71523
1268,25644,2.24697,1.71992
1270,25691,2.19021,1.72461
1272,25738,2.19021,1.72939
1274,25785,2.13823,1.73398
1276,25831,2.13823,1.73857
1278,25879,2.09087,1.74346
1280,25926,2.09087,1.74814
1282,26026,2.04881,1.75811
1284,26077,2.01498,1.76318
1286,26127,2.01498,1.76816
1288,26174,1.97986,1.77295
1290,26219,1.97986,1.77744
1292,26269,1.9479,1.78242
1294,26320,1.9479,1.7875
1296,26369,1.92142,1.79238
1298,26420,1.92142,1.79756
1300,26471,1.89654,1.80254
1302,26520,1.89654,1.80752
1304,26570,1.87927,1.8125
1306,26620,1.87927,1.81748
1308,26669,1.86226,1.82246
1310,26718,1.86226,1.82725
1312,26762,1.84291,1.83174
1314,26809,1.84291,1.83643
1316,26857,1.82529,1.84121
1318,26903,1.82529,1.8458
1320,26950,1.80271,1.85049
1322,27059,1.7784,1.86133
1324,27106,1.75172,1.86611
1326,27152,1.75172,1.8707
1328,27195,1.75172,1.875
1330,27243,1.72044,1.87988
1332,27292,1.72044,1.88477
1334,27340,1.6916,1.88955
1336,27390,1.6629,1.89453
1338,27438,1.6629,1.89922
1340,27489,1.63632,1.90439
1342,27537,1.63632,1.90918
1344,27585,1.6126,1.91406
1346,27633,1.6126,1.91885
1348,27679,1.5861,1.92344
1350,27726,1.5861,1.928125
1352,27775,1.56206,1.93301
1354,27823,1.56206,1.93779
1356,27869,1.53824,1.94248
1358,27919,1.53824,1.94746
1360,27971,1.51411,1.95254
1362,28077,1.49361,1.96318
1364,28127,1.49361,1.96816
1366,28176,1.47204,1.97314
1368,28222,1.47204,1.97773
1370,28270,1.45377,1.98252
1372,28320,1.45377,1.9875
1374,28368,1.43895,1.99229
1376,28414,1.43895,1.996875
1378,28461,1.42354,2.00156
1380,28513,1.42354,2.00684
1382,28558,1.41204,2.01133
1384,28608,1.41204,2.01631
1386,28654,1.39927,2.0209
1388,28703,1.39927,2.02578
1390,28749,1.38507,2.03047
1392,28799,1.38507,2.03545
1394,28847,1.37145,2.04023
1396,28893,1.37145,2.04482
1398,28975,1.35173,2.05293
1400,29051,1.33067,2.06064
1402,29163,1.30846,2.07178
1404,29212,1.28506,2.07676
1406,29260,1.28506,2.08145
1408,29309,1.26737,2.08643
1410,29356,1.26737,2.09111
1412,29404,1.25085,2.0959
1414,29450,1.25085,2.10049
1416,29496,1.23552,2.10518
1418,29543,1.23552,2.10986
1420,29596,1.22102,2.11504
1422,29645,1.22102,2.11992
1424,29697,1.20245,2.1252
1426,29745,1.20245,2.12998
1428,29794,1.18486,2.13496
1430,29843,1.18486,2.13984
1432,29894,1.16649,2.14492
1434,29946,1.16649,2.1501
1436,29994,1.14642,2.15488
1438,30045,1.14642,2.15996
1440,30094,1.12638,2.16484
1442,30191,1.1001,2.17461
1444,30242,1.1001,2.17969
1446,30292,1.07201,2.18467
1448,30341,1.04465,2.18965
1450,30391,1.04465,2.19453
1452,30439,1.01753,2.19941
1454,30489,1.01753,2.20439
1456,30539,0.996604,2.209375
1458,30588,0.996604,2.21426
1460,30636,0.977752,2.21914
1462,30687,0.977752,2.22422
1464,30737,0.961588,2.2291
1466,30788,0.961588,2.23428
1468,30836,0.949827,2.23906
1470,30884,0.949827,2.24395
1472,30932,0.937454,2.24873
1474,30982,0.937454,2.25371
1476,31031,0.927277,2.25859
1478,31082,0.927277,2.26377
1480,31134,0.917083,2.26885
1482,31184,0.917083,2.27383
1484,31289,0.905174,2.284375
1486,31335,0.896272,2.28906
1488,31385,0.896272,2.29395
1490,31438,0.887078,2.29932
1492,31490,0.878458,2.30449
1494,31543,0.878458,2.30977
1496,31628,0.870704,2.31826
1498,31677,0.859892,2.32324
1500,31730,0.859892,2.32852
1502,31778,0.849191,2.3333
1504,31829,0.849191,2.33838
1506,31878,0.837701,2.34326
1508,31930,0.837701,2.34854
1510,31977,0.825885,2.35322
1512,32029,0.825885,2.3584
1514,32078,0.814693,2.36328
1516,32130,0.814693,2.36855
1518,32178,0.800256,2.37324
1520,32225,0.800256,2.37803
1522,32324,0.785582,2.38789
1524,32376,0.771464,2.39307
1526,32428,0.771464,2.39834
1528,32482,0.757541,2.40361
1530,32532,0.747314,2.40859
1532,32580,0.747314,2.41348
1534,32630,0.737032,2.41846
1536,32680,0.737032,2.42344
1538,32728,0.726265,2.42822
1540,32780,0.726265,2.4335
1542,32829,0.716993,2.43838
1544,32877,0.716993,2.44326
1546,32927,0.706839,2.44814
1548,32977,0.706839,2.45322
1550,33028,0.697258,2.4583
1552,33078,0.697258,2.46318
1554,33127,0.6869,2.46826
1556,33177,0.6869,2.47314
1558,33230,0.674516,2.47842
1560,33276,0.674516,2.48311
1562,33374,0.662517,2.49287
1564,33432,0.649421,2.49863
1566,33483,0.637042,2.50371
1568,33533,0.637042,2.50879
1570,33582,0.624768,2.51367
1572,33636,0.624768,2.51904
1574,33686,0.610331,2.52402
1576,33738,0.610331,2.5292
1578,33787,0.595513,2.53418
1580,33837,0.595513,2.53926
1582,33889,0.578797,2.54434
1584,33942,0.578797,2.54961
1586,33994,0.559438,2.55488
1588,34046,0.559438,2.56006
1590,34102,0.53686,2.56563
1592,34154,0.509199,2.5709
1594,34203,0.509199,2.57578
1596,34253,0.477776,2.58076
1598,34303,0.477776,2.58574
1600,34354,0.445694,2.59082
1602,34404,0.445694,2.5958
1604,34506,0.415661,2.60605
1606,34555,0.389773,2.61094
1608,34604,0.389773,2.61592
1610,34654,0.366328,2.6209
1612,34703,0.366328,2.62578
1614,34754,0.344364,2.63086
1616,34806,0.344364,2.63604
1618,34854,0.322697,2.64082
1620,34905,0.322697,2.6459
1622,34957,0.299777,2.65107
1624,35008,0.277382,2.65625
1626,35060,0.277382,2.66152
1628,35114,0.253915,2.6668
1630,35165,0.253915,2.67197
1632,35216,0.229843,2.67715
1634,35268,0.229843,2.68223
1636,35320,0.209263,2.6875
1638,35372,0.209263,2.69268
1640,35423,0.193093,2.69775
1642,35475,0.193093,2.70303
1644,35581,0.177867,2.71357
1646,35637,0.177867,2.71914
1648,35688,0.172872,2.72432
1650,35738,0.172872,2.7293
1652,35788,0.166492,2.73418
1654,35839,0.166492,2.73936
1656,35890,0.15764,2.74443
1658,35943,0.15764,2.7498
1660,35996,0.147028,2.75498
1662,36049,0.147028,2.76035
1664,36104,0.136338,2.76582
1666,36155,0.125267,2.771
1668,36204,0.125267,2.77588
1670,36255,0.115095,2.78096
1672,36304,0.115095,2.78584
1674,36355,0.106525,2.79092
1676,36408,0.106525,2.79629
1678,36456,0.0992458,2.80107
1680,36509,0.0992458,2.80635
1682,36560,0.0935393,2.81152
1684,36612,0.0935393,2.8166
1686,36722,0.0849408,2.82754
1688,36775,0.0849408,2.83291
1690,36826,0.0818998,2.83809
1692,36875,0.0818998,2.84297
1694,36927,0.0788646,2.84814
1696,36977,0.0788646,2.85313
1698,37028,0.0754598,2.8582
1700,37077,0.0754598,2.86318
1702,37132,0.0710772,2.86865
1704,37185,0.0710772,2.87393
1706,37233,0.0662876,2.87881
1708,37285,0.0662876,2.88389
1710,37334,0.0621423,2.88887
1712,37388,0.0582246,2.89424
1714,37439,0.0582246,2.89941
1716,37492,0.0548472,2.90469
1718,37546,0.0548472,2.90996
1720,37597,0.0514972,2.91523
1722,37650,0.0514972,2.92051
1724,37750,0.0477717,2.93047
1726,37812,0.0445325,2.93662
1728,37863,0.0414748,2.9418
1730,37919,0.0414748,2.94736
1732,37973,0.0385721,2.95273
1734,38025,0.0385721,2.95801
1736,38077,0.0358733,2.96318
1738,38129,0.0358733,2.96836
1740,38181,0.0328107,2.97354
1742,38232,0.0328107,2.97861
1744,38282,0.0295264,2.98369
1746,38336,0.0260166,2.98896
1748,38386,0.0260166,2.99404
1750,38437,0.022242,2.99922
1752,38490,0.022242,3.00449
1754,38540,0.0187205,3.00947
1756,38594,0.0187205,3.01484
1758,38647,0.0155637,3.02012
1760,38698,0.0155637,3.0252
1762,38750,0.0130091,3.03047
1764,38802,0.0130091,3.03564
1766,38911,0.0098631,3.04648
1768,38964,0.0098631,3.05186
1770,39015,0.00832345,3.05693
1772,39068,0.00832345,3.06221
1774,39198,0.0044714,3.0752
1776,39249,0.0044714,3.08027
1778,39303,0.00219135,3.08574
1780,39355,0.00219135,3.09102
1782,39406,-0.0002201,3.096
1784,39455,-0.0002201,3.10098
1786,39507,-0.0026649,3.10615
1788,39560,-0.0026649,3.11133
1790,39614,-0.0051754,3.1168
1792,39669,-0.00788007,3.12236
1794,39724,-0.00788007,3.12783
1796,39773,-0.0106671,3.13271
1798,39825,-0.0106671,3.13789
1800,39878,-0.0135758,3.14326
1802,39930,-0.0135758,3.14844
1804,40067,-0.0190332,3.16211
1806,40129,-0.0190332,3.16826
1808,40182,-0.0212573,3.17363
1810,40237,-0.0212573,3.1792
1812,40290,-0.0232,3.18447
1814,40341,-0.0250486,3.18955
1816,40393,-0.0250486,3.19473
1818,40447,-0.0268863,3.2001
1820,40500,-0.0268863,3.20547
1822,40556,-0.0287025,3.21104
1824,40610,-0.0287025,3.21641
1826,40662,-0.0307335,3.22168
1828,40712,-0.0307335,3.22666
1830,40765,-0.0327095,3.23193
1832,40818,-0.0346738,3.23721
1834,40872,-0.0346738,3.24268
1836,40924,-0.0364459,3.24785
1838,40975,-0.0364459,3.25283
1840,41025,-0.0378472,3.25791
1842,41078,-0.0378472,3.26318
1844,41197,-0.0400439,3.27393
1846,41248,-0.0400439,3.28027
1848,41299,-0.0410256,3.28535
1850,41350,-0.0410256,3.29033
1852,41403,-0.0420749,3.2957
1854,41455,-0.0420749,3.30098
1856,41508,-0.0430732,3.30625
1858,41560,-0.0430732,3.31143
1860,41612,-0.0439842,3.3167
1862,41662,-0.0439842,3.32158
1864,41712,-0.044856,3.32666
1866,41765,-0.0456288,3.33193
1868,41820,-0.0456288,3.3374
1870,41870,-0.0463241,3.34238
1872,41924,-0.0463241,3.34785
1874,41976,-0.0469645,3.35303
1876,42028,-0.0469645,3.3582
1878,42079,-0.0474999,3.36338
1880,42132,-0.0474999,3.36855
1882,42182,-0.0479304,3.37363
1884,42233,-0.0479304,3.37871
1886,42343,-0.0488787,3.38975
1888,42398,-0.0488787,3.39521
1890,42455,-0.0493857,3.40088
1892,42506,-0.0493857,3.40605
1894,42559,-0.0499545,3.41133
1896,42614,-0.0499545,3.4168
1898,42663,-0.0506498,3.42178
1900,42716,-0.0511853,3.42705
1902,42771,-0.0511853,3.43252
1904,42825,-0.0518031,3.43799
1906,42876,-0.0518031,3.44307
1908,42930,-0.0523934,3.44834
1910,42984,-0.0523934,3.45381
1912,43035,-0.0529073,3.45889
1914,43090,-0.0529073,3.46445
1916,43144,-0.0534094,3.46982
1918,43196,-0.0538125,3.475
1920,43251,-0.0538125,3.48057
1922,43305,-0.054088,3.48594
1924,43412,-0.054243,3.49668
1926,43468,-0.054243,3.50225
1928,43524,-0.054342,3.50781
1930,43576,-0.0543754,3.51299
1932,43628,-0.0543754,3.51826
1934,43679,-0.0543695,3.52334
1936,43732,-0.0543695,3.52861
1938,43784,-0.054292,3.53389
1940,43838,-0.054292,3.53926
1942,43891,-0.054292,3.54453
1944,43948,-0.054292,3.5502
1946,44004,-0.0543195,3.55586
1948,44058,-0.0543754,3.56123
1950,44109,-0.0543754,3.56631
1952,44165,-0.0544744,3.57197
1954,44217,-0.0544744,3.57705
1956,44271,-0.0544685,3.58252
1958,44323,-0.0544685,3.5877
1960,44376,-0.054392,3.59297
1962,44432,-0.0543361,3.59863
1964,44557,-0.0542538,3.61104
1966,44610,-0.0542538,3.61641
1968,44665,-0.0541106,3.62197
1970,44718,-0.0540164,3.62725
1972,44773,-0.0540164,3.63271
1974,44826,-0.0539615,3.63799
1976,44877,-0.0539615,3.64307
1978,44929,-0.0539223,3.64834
1980,44982,-0.0539223,3.65371
1982,45035,-0.0539831,3.65889
1984,45089,-0.0539831,3.66436
1986,45143,-0.0539331,3.66963
1988,45199,-0.0538841,3.67529
1990,45257,-0.0538841,3.68115
1992,45309,-0.0538615,3.68623
1994,45370,-0.0538615,3.69238
1996,45424,-0.053784,3.69775
1998,45477,-0.0537791,3.703125
2000,45533,-0.0537791,3.70879
2002,45587,-0.0537791,3.71406
2004,45642,-0.0537791,3.71953
2006,45746,-0.0537899,3.73008
2008,45803,-0.0538566,3.73564
2010,45856,-0.0539831,3.74102
2012,45908,-0.0539831,3.74619
2014,45968,-0.0541214,3.75215
2016,46022,-0.0541214,3.75762
2018,46076,-0.0542263,3.76299
2020,46129,-0.0542263,3.76836
2022,46186,-0.0542704,3.77402
2024,46240,-0.0543087,3.77939
2026,46294,-0.0543087,3.78486
2028,46349,-0.0542704,3.79033
2030,46403,-0.0542704,3.7957
2032,46457,-0.0541704,3.80107
2034,46510,-0.0541704,3.80645
2036,46562,-0.0540821,3.81162
2038,46617,-0.0540057,3.81719
2040,46674,-0.0540057,3.82275
2042,46728,-0.0539331,3.82822
2044,46835,-0.0538448,3.83389
2046,46891,-0.0538448,3.84453
2048,46943,-0.0538066,3.84971
2050,46995,-0.0538066,3.85488
2052,47049,-0.0537075,3.86035
2054,47101,-0.0535359,3.86553
2056,47157,-0.0535359,3.87109
2058,47212,-0.0534035,3.87656
2060,47266,-0.0534035,3.88193
2062,47319,-0.0532496,3.8874
2064,47375,-0.0532496,3.89287
2066,47429,-0.0532103,3.89834
2068,47487,-0.0533486,3.904
2070,47543,-0.0533486,3.90967
2072,47597,-0.0535585,3.91514
2074,47654,-0.0535585,3.9208
2076,47707,-0.0538399,3.92617
2078,47761,-0.0539615,3.93145
2080,47818,-0.0539615,3.93721
2082,47874,-0.053989,3.94277
2084,47980,-0.053939,3.95342
2086,48034,-0.053939,3.95879
2088,48091,-0.053834,3.96445
2090,48144,-0.0537624,3.96973
2092,48201,-0.0537624,3.97549
2094,48259,-0.0536683,3.98125
2096,48313,-0.0536683,3.98672
2098,48373,-0.0536134,3.99268
2100,48426,-0.0535967,3.99795
2102,48480,-0.0535967,4.00342
2104,48540,-0.0536742,4.009375
2106,48594,-0.0536742,4.01484
2108,48651,-0.0538291,4.02051
2110,48708,-0.0538291,4.02617
2112,48764,-0.0539615,4.03184
2114,48845,-0.0540057,4.03994
2116,48901,-0.0540272,4.04541
2118,48956,-0.0540272,4.05098
2120,49009,-0.0539939,4.05635
2122,49128,-0.0539007,4.06816
2124,49188,-0.0538174,4.07422
2126,49242,-0.0538174,4.07949
2128,49297,-0.0536742,4.08506
2130,49352,-0.0536742,4.090625
2132,49406,-0.0535859,4.096
2134,49456,-0.0535859,4.10098
2136,49510,-0.0535634,4.10635
2138,49566,-0.053531,4.11201
2140,49623,-0.053531,4.11768
2142,49678,-0.053431,4.12314
2144,49740,-0.053431,4.12939
2146,49793,-0.0533378,4.13467
2148,49847,-0.0533378,4.14014
2150,49903,-0.0533104,4.14561
2152,49958,-0.0532878,4.15127
2154,50017,-0.0532878,4.15713
2156,50075,-0.0533261,4.16279
2158,50129,-0.0533261,4.16826
2160,50186,-0.0533153,4.17402
2162,50294,-0.0532711,4.18477
2164,50351,-0.0533427,4.19043
2166,50408,-0.0533427,4.19619
2168,50459,-0.0533986,4.20137
2170,50518,-0.0535418,4.20723
2172,50574,-0.0535418,4.21279
2174,50627,-0.0535751,4.21807
2176,50685,-0.0535751,4.22393
2178,50742,-0.0535751,4.22959
2180,50797,-0.0535751,4.23506
2182,50853,-0.0535918,4.240625
2184,50907,-0.053481,4.24609
2186,50961,-0.053481,4.25146
2188,51019,-0.0534584,4.25723
2190,51075,-0.0534584,4.26289
2192,51131,-0.0533869,4.26846
2194,51191,-0.0533594,4.27441
2196,51244,-0.0533594,4.27979
2198,51301,-0.0533761,4.28545
2200,51356,-0.0533761,4.29102
2202,51465,-0.0533927,4.30195
2204,51522,-0.0534751,4.30762
2206,51577,-0.0534369,4.31309
2208,51636,-0.0534369,4.31895
2210,51690,-0.053431,4.32441
2212,51743,-0.053431,4.32959
2214,51801,-0.0533427,4.33545
2216,51854,-0.053227,4.34072
2218,51908,-0.053227,4.34619
2220,51966,-0.0532819,4.35186
2222,52022,-0.0532819,4.35762
2224,52077,-0.0533594,4.36309
2226,52136,-0.05358,4.36895
2228,52192,-0.05358,4.37451
2230,52247,-0.0538174,4.38008
2232,52302,-0.0538174,4.38555
2234,52356,-0.0539556,4.39092
2236,52410,-0.0539556,4.39639
2238,52470,-0.0539772,4.40244
2240,52589,-0.0539174,4.41426
2242,52659,-0.0538782,4.42119
2244,52716,-0.0538125,4.42695
2246,52775,-0.0538125,4.43281
2248,52830,-0.0538782,4.43838
2250,52883,-0.0538782,4.44365
2252,52937,-0.0538615,4.44912
2254,52992,-0.053834,4.45459
2256,53046,-0.053834,4.45996
2258,53105,-0.0538448,4.46582
2260,53161,-0.0538448,4.47148
2262,53219,-0.0538399,4.47734
2264,53275,-0.0538399,4.48291
2266,53328,-0.0539498,4.48818
2268,53388,-0.0540547,4.49414
2270,53445,-0.0540547,4.4999
2272,53507,-0.0541547,4.50615
2274,53566,-0.0541547,4.51191
2276,53621,-0.0541547,4.51748
2278,53678,-0.0541871,4.52314
2280,53790,-0.0542204,4.534375
2282,53847,-0.0542204,4.54004
2284,53903,-0.0541155,4.5457
2286,53959,-0.0540821,4.55127
2288,54018,-0.0540821,4.55713
2290,54074,-0.0540272,4.56279
2292,54129,-0.0540272,4.56826
2294,54186,-0.0540213,4.57402
2296,54242,-0.0541988,4.57959
2298,54298,-0.0541988,4.58516
2300,54355,-0.0544195,4.59092
2302,54410,-0.0544195,4.59629
2304,54466,-0.0545401,4.60195
2306,54525,-0.0545019,4.60781
2308,54581,-0.0545019,4.61338
2310,54634,-0.054447,4.61875
2312,54690,-0.054447,4.62441
2314,54744,-0.0543146,4.62979
2316,54800,-0.0543146,4.63535
2318,54908,-0.054292,4.64609
2320,54975,-0.054292,4.65283
2322,55032,-0.0542645,4.65859
2324,55091,-0.0542704,4.66445
2326,55145,-0.0542704,4.66982
2328,55203,-0.054243,4.67559
2330,55259,-0.054243,4.68125
2332,55317,-0.0540606,4.68701
2334,55371,-0.0540606,4.69248
2336,55426,-0.0540606,4.69795
2338,55480,-0.0541763,4.70342
2340,55540,-0.0541763,4.709375
2342,55597,-0.0542145,4.71504
2344,55653,-0.0542145,4.72061
2346,55706,-0.0543087,4.72598
2348,55760,-0.0543195,4.73135
2350,55814,-0.0543195,4.73672
2352,55870,-0.0542096,4.74229
2354,55928,-0.0542096,4.74824
2356,55990,-0.054193,4.7543
2358,56104,-0.0542812,4.76572
2360,56159,-0.0543253,4.77129
2362,56215,-0.0543253,4.77686
2364,56269,-0.0543969,4.78232
2366,56325,-0.0544028,4.78789
2368,56382,-0.0544028,4.79355
2370,56442,-0.0542204,4.79951
2372,56498,-0.0542204,4.80518
2374,56555,-0.0541429,4.81084
2376,56610,-0.053989,4.81631
2378,56675,-0.053989,4.82285
2380,56733,-0.0537958,4.82861
2382,56793,-0.0537958,4.83467
2384,56851,-0.0538615,4.84053
2386,56908,-0.0540106,4.84609
2388,56963,-0.0540106,4.85166
2390,57023,-0.0541047,4.85762
2392,57078,-0.0541047,4.86309
2394,57136,-0.0541988,4.86895
2396,57194,-0.0541547,4.87471
2398,57306,-0.0540106,4.88594
2400,57362,-0.0540106,4.8916
2402,57420,-0.0539772,4.89736
2404,57475,-0.054038,4.90293
2406,57534,-0.054038,4.90869
2408,57592,-0.0540498,4.91455
2410,57647,-0.0540498,4.92002
2412,57706,-0.0539772,4.92588
2414,57761,-0.053834,4.93145
2416,57826,-0.053834,4.93799
2418,57886,-0.0538125,4.94395
2420,57945,-0.0538566,4.9498
2422,58005,-0.0538566,4.95586
2424,58098,-0.0538733,4.96514
2426,58152,-0.0538782,4.97061
2428,58210,-0.0538782,4.97637
2430,58267,-0.0538448,4.98203
2432,58326,-0.0537075,4.98789
2434,58386,-0.0537075,4.99355
2436,58440,-0.053685,4.99717
2438,58563,-0.0538174,5.0