File: tensile_tests/04.03.25_BslA_idx2_slipped.csv
,Time,Force (Newtons),Distance (millimeters)
0,2,-0.000157342,0.0
2,31,-0.000157342,0.0
4,61,-0.000157342,0.0
6,92,4.17332e-05,0.0
8,123,4.17332e-05,0.0
10,150,4.17332e-05,0.0
12,181,4.17332e-05,0.0
14,208,0.000262383,0.0
16,235,0.000262383,0.0
18,264,0.000262383,0.0
20,293,0.000283957,0.0
22,322,0.000283957,0.0
24,349,0.000283957,0.0
26,377,0.000355546,0.0
28,405,0.000355546,0.0
30,434,0.000355546,0.0
32,463,0.000355546,0.0
34,491,0.000311416,0.0
36,521,0.000311416,0.0
38,549,0.000311416,0.0
40,580,0.00027317,0.0
42,612,0.00027317,0.0
44,642,0.00027317,0.0
46,674,0.000372217,0.0
48,700,0.000372217,0.0
50,730,0.000372217,0.0
52,762,0.000460477,0.0
54,791,0.000460477,0.0
56,817,0.000460477,0.0
58,845,0.000460477,0.0
60,872,0.000587964,0.0
62,902,0.000587964,0.0
64,931,0.000587964,0.0
66,963,0.000636997,0.0
68,991,0.000636997,0.0
70,1023,0.000636997,0.0
72,1054,0.000664455,0.0
74,1081,0.000664455,0.0
76,1107,0.000664455,0.0
78,1135,0.000664455,0.0
80,1164,0.000703682,0.0
82,1197,0.000703682,0.0
84,1225,0.000703682,0.0
86,1253,0.000725257,0.0
88,1280,0.000725257,0.0
90,1307,0.000725257,0.0
92,1338,0.000758599,0.0
94,1366,0.000758599,0.0
96,1396,0.000758599,0.0
98,1426,0.000753696,0.0
100,1453,0.000753696,0.0
102,1481,0.000753696,0.0
104,1510,0.000753696,0.0
106,1540,0.000737025,0.0
108,1573,0.000737025,0.0
110,1600,0.000737025,0.0
112,1630,0.000709566,0.0
114,1660,0.000709566,0.0
116,1690,0.000709566,0.0
118,1715,0.000697798,0.0
120,1747,0.000697798,0.0
122,1776,0.000697798,0.0
124,1807,0.000697798,0.0
126,1837,0.000697798,0.0
128,1864,0.000697798,0.0
130,1894,0.000697798,0.0
132,1923,0.000620326,0.0
134,1951,0.000620326,0.0
136,1981,0.000620326,0.0
138,2012,0.000576196,0.0
140,2040,0.000576196,0.0
142,2073,0.000576196,0.0
144,2103,0.000609538,0.0
146,2130,0.000609538,0.0
148,2159,0.000609538,0.0
150,2191,0.00062621,0.0
152,2223,0.00062621,0.0
154,2251,0.00062621,0.0
156,2279,0.000709566,0.0
158,2307,0.000709566,0.0
160,2333,0.000709566,0.0
162,2361,0.000709566,0.0
164,2386,0.000725257,0.0
166,2411,0.000725257,0.0
168,2437,0.000725257,0.0
170,2464,0.000725257,0.0
172,2490,0.000587964,0.0
174,2515,0.000587964,0.0
176,2540,0.000587964,0.0
178,2565,0.00049382,0.0
180,2591,0.00049382,0.0
182,2617,0.00049382,0.0
184,2646,0.00049382,0.0
186,2675,0.00053795,0.0
188,2704,0.00053795,0.0
190,2732,0.00053795,0.0
192,2763,0.000642881,0.0
194,2791,0.000642881,0.0
196,2820,0.000642881,0.0
198,2847,0.000642881,0.0
200,2874,0.000797826,0.0
202,2902,0.000797826,0.0
204,2931,0.000797826,0.0
206,2963,0.00086353,0.0
208,2993,0.00086353,0.0
210,3024,0.00086353,0.0
212,3053,0.000825285,0.0
214,3081,0.000825285,0.0
216,3109,0.000825285,0.0
218,3140,0.000753696,0.0
220,3169,0.000753696,0.0
222,3199,0.000753696,0.0
224,3229,0.000753696,0.0
226,3258,0.000659552,0.0
228,3289,0.000659552,0.0
230,3317,0.000659552,0.0
232,3345,0.000681127,0.0
234,3371,0.000681127,0.0
236,3401,0.000681127,0.0
238,3428,0.000636997,0.0
240,3453,0.000636997,0.0
242,3479,0.000636997,0.0
244,3555,0.000648765,0.0
246,3594,0.000648765,0.0
248,3622,0.000747812,0.0
250,3651,0.000747812,0.0
252,3678,0.000747812,0.0
254,3705,0.000769387,0.0
256,3731,0.000769387,0.0
258,3758,0.000769387,0.0
260,3790,0.000769387,0.0
262,3822,0.000813517,0.0
264,3850,0.000813517,0.0
266,3878,0.000813517,0.0
268,3908,0.000880202,0.0
270,3933,0.000880202,0.0
272,3962,0.000880202,0.0
274,3987,0.000880202,0.0
276,4015,0.00095179,0.0
278,4043,0.00095179,0.0
280,4070,0.00095179,0.0
282,4099,0.00106751,0.0
284,4128,0.00106751,0.0
286,4157,0.00106751,0.0
288,4184,0.00107928,0.0
290,4321,0.00107928,0.0
292,4347,0.00107928,0.0
294,4374,0.00114498,0.0
296,4400,0.00114498,0.0
298,4428,0.00114498,0.0
300,4455,0.00114498,0.0
302,4484,0.00123913,0.0
304,4512,0.00123913,0.0
306,4542,0.00123913,0.0
308,4573,0.00136073,0.0
310,4602,0.00136073,0.0
312,4629,0.00136073,0.0
314,4659,0.00138819,0.0
316,4688,0.00138819,0.0
318,4716,0.00138819,0.0
320,4743,0.00138819,0.0
322,4773,0.00133817,0.0
324,4800,0.00133817,0.0
326,4827,0.00133817,0.0
328,4853,0.00122834,0.0
330,4881,0.00122834,0.0
332,4907,0.00122834,0.0
334,4934,0.00122834,0.0
336,4960,0.00123324,0.0
338,4987,0.00123324,0.0
340,5016,0.00123324,0.0
342,5044,0.00127247,0.0
344,5071,0.00127247,0.0
346,5099,0.00127247,0.0
348,5126,0.00127247,0.0
350,5154,0.0012607,0.0
352,5178,0.0012607,0.0
354,5203,0.0012607,0.0
356,5230,0.0013215,0.0
358,5257,0.0013215,0.0
360,5286,0.0013215,0.0
362,5313,0.0013215,0.0
364,5341,0.00122245,0.0
366,5369,0.00122245,0.0
368,5395,0.00122245,0.0
370,5425,0.00118911,0.0
372,5453,0.00118911,0.0
374,5482,0.00118911,0.0
376,5510,0.00118911,0.0
378,5537,0.00111164,0.0
380,5564,0.00111164,0.0
382,5589,0.00111164,0.0
384,5615,0.00101848,0.0
386,5642,0.00101848,0.0
388,5672,0.00101848,0.0
390,5698,0.00101848,0.0
392,5727,0.00110085,0.0
394,5754,0.00110085,0.0
396,5784,0.00110085,0.0
398,5816,0.00122834,0.0
400,5844,0.00122834,0.0
402,5872,0.00122834,0.0
404,5900,0.00135484,0.0
406,5929,0.00135484,0.0
408,5961,0.00135484,0.0
410,5992,0.00143232,0.0
412,6020,0.00143232,0.0
414,6048,0.00143232,0.0
416,6075,0.00143232,0.0
418,6101,0.00153725,0.0
420,6130,0.00153725,0.0
422,6157,0.00153725,0.0
424,6184,0.00160295,0.0
426,6212,0.00160295,0.0
428,6241,0.00160295,0.0
430,6267,0.00160295,0.0
432,6294,0.00161962,0.0
434,6320,0.00161962,0.0
436,6347,0.00161962,0.0
438,6375,0.00161962,0.0
440,6403,0.00161962,0.0
442,6431,0.00161962,0.0
444,6463,0.00161962,0.0
446,6491,0.00153136,0.0
448,6519,0.00153136,0.0
450,6549,0.00153136,0.0
452,6577,0.00141564,0.0
454,6607,0.00141564,0.0
456,6638,0.00141564,0.0
458,6666,0.00133817,0.0
460,6694,0.00133817,0.0
462,6722,0.00133817,0.0
464,6749,0.00133817,0.0
466,6776,0.00133817,0.0
468,6802,0.00133817,0.0
470,6830,0.00133817,0.0
472,6860,0.00140486,0.0
474,6889,0.00140486,0.0
476,6917,0.00140486,0.0
478,6947,0.00143232,0.0
480,6979,0.00143232,0.0
482,7007,0.00143232,0.0
484,7037,0.00143232,0.0
486,7065,0.00149802,0.0
488,7095,0.00149802,0.0
490,7123,0.00149802,0.0
492,7154,0.00148723,0.0
494,7182,0.00148723,0.0
496,7213,0.00148723,0.0
498,7242,0.00144899,0.0
500,7293,0.00144899,9.765625e-05
502,7337,0.00145389,0.0001953125
504,7377,0.00145389,0.000390625
506,7420,0.00148135,0.0005859375
508,7463,0.00148135,0.000878906
510,7503,0.00148135,0.00126953
512,7542,0.00151469,0.00175781
514,7579,0.00151469,0.00224609
516,7670,0.00160884,0.00283203
518,7714,0.00168042,0.00449219
520,7757,0.00168042,0.00537109
522,7798,0.00168042,0.00625
524,7839,0.0017579,0.00722656
526,7880,0.0017579,0.00830078
528,7921,0.00184616,0.00947266
530,7963,0.00184616,0.0106445
532,8003,0.00217664,0.0119141
534,8046,0.00217664,0.0132813
536,8089,0.00271797,0.01484375
538,8132,0.00271797,0.0163086
540,8170,0.00271797,0.0178711
542,8237,0.00325341,0.0205078
544,8280,0.00383298,0.0223633
546,8320,0.00383298,0.02421875
548,8402,0.0042635,0.0280273
550,8443,0.0042635,0.0301758
552,8485,0.00451749,0.0323242
554,8522,0.00451749,0.0342773
556,8612,0.0047705,0.0393555
558,8652,0.0047705,0.0416992
560,8689,0.00500292,0.0439453
562,8733,0.00500292,0.0466797
564,8774,0.00524514,0.0493164
566,8817,0.00524514,0.0521484
568,8856,0.00571488,0.0547852
570,8895,0.00571488,0.0576172
572,8936,0.00571488,0.0604492
574,8974,0.00641508,0.0632813
576,9016,0.00641508,0.06640625
578,9056,0.00744772,0.0694336
580,9096,0.00744772,0.0725586
582,9134,0.00918643,0.0756836
584,9177,0.00918643,0.0791016
586,9219,0.00918643,0.0826172
588,9263,0.0127286,0.0864258
590,9306,0.0127286,0.0901367
592,9348,0.019401,0.0938477
594,9387,0.019401,0.0973633
596,9426,0.0311053,0.100977
598,9466,0.0311053,0.104785
600,9510,0.0311053,0.108984
602,9552,0.0498252,0.113086
604,9589,0.0498252,0.116797
606,9680,0.0749861,0.125977
608,9719,0.106896,0.129883
610,9759,0.106896,0.133887
612,9803,0.145693,0.138281
614,9843,0.145693,0.1421875
616,9884,0.145693,0.146387
618,9927,0.187697,0.150586
620,9967,0.187697,0.1546875
622,10011,0.233337,0.158984
624,10055,0.233337,0.163379
626,10096,0.280313,0.16748
628,10137,0.280313,0.171582
630,10177,0.280313,0.175586
632,10220,0.324971,0.17998
634,10261,0.324971,0.184082
636,10308,0.370712,0.18877
638,10355,0.370712,0.193359
640,10405,0.414785,0.19834
642,10449,0.414785,0.202832
644,10508,0.457887,0.208301
646,10583,0.501578,0.216113
648,10625,0.501578,0.22041
650,10668,0.540812,0.224707
652,10708,0.540812,0.228711
654,10753,0.579267,0.233203
656,10798,0.579267,0.237695
658,10848,0.615757,0.242676
660,10903,0.615757,0.248145
662,10944,0.64913,0.252344
664,10997,0.64913,0.257617
666,11041,0.683192,0.262012
668,11089,0.683192,0.266797
670,11131,0.713314,0.270996
672,11176,0.713314,0.275488
674,11219,0.713314,0.279785
676,11289,0.741939,0.286719
678,11338,0.770709,0.291602
680,11480,0.796339,0.305859
682,11522,0.822917,0.310059
684,11563,0.822917,0.314258
686,11604,0.822917,0.318262
688,11643,0.846719,0.322168
690,11685,0.846719,0.326367
692,11726,0.8672,0.330469
694,11770,0.8672,0.334863
696,11811,0.888011,0.3390625
698,11853,0.888011,0.343164
700,11895,0.905379,0.347363
702,11936,0.905379,0.351465
704,11976,0.905379,0.355469
706,12017,0.92278,0.359668
708,12061,0.92278,0.363965
710,12101,0.938927,0.368066
712,12143,0.938927,0.372168
714,12185,0.951583,0.376367
716,12225,0.951583,0.380469
718,12322,0.965601,0.390137
720,12364,0.965601,0.394336
722,12405,0.977863,0.3984375
724,12448,0.977863,0.402637
726,12488,0.990225,0.406641
728,12530,0.990225,0.41084
730,12573,1.00337,0.415137
732,12615,1.00337,0.419434
734,12658,1.012,0.423633
736,12697,1.012,0.427637
738,12741,1.012,0.431934
740,12783,1.02087,0.43623
742,12828,1.02087,0.440625
744,12871,1.02877,0.444922
746,12914,1.02877,0.449316
748,12957,1.0354,0.453613
750,13000,1.0354,0.45791
752,13042,1.04399,0.462109
754,13083,1.04399,0.466113
756,13123,1.04399,0.470215
758,13165,1.04975,0.474414
760,13206,1.04975,0.478516
762,13248,1.05526,0.482715
764,13290,1.05526,0.486914
766,13388,1.06164,0.496777
768,13446,1.06647,0.502441
770,13487,1.06647,0.506543
772,13531,1.07322,0.5109375
774,13573,1.07322,0.515234
776,13617,1.07744,0.519531
778,13663,1.07744,0.524121
780,13704,1.07886,0.528223
782,13747,1.07886,0.53252
784,13791,1.07886,0.536914
786,13832,1.08068,0.541113
788,13873,1.08068,0.545117
790,13916,1.07948,0.549512
792,13959,1.07948,0.553809
794,14002,1.07871,0.558105
796,14045,1.07871,0.562402
798,14089,1.07711,0.566797
800,14130,1.07711,0.570898
802,14173,1.07711,0.575195
804,14216,1.07312,0.579395
806,14259,1.07312,0.583789
808,14353,1.07151,0.593262
810,14396,1.0698,0.597461
812,14436,1.0698,0.601465
814,14477,1.06943,0.605566
816,14521,1.06943,0.609961
818,14561,1.07052,0.613965
820,14607,1.07052,0.618555
822,14649,1.07052,0.622754
824,14690,1.06905,0.626953
826,14733,1.06905,0.631152
828,14778,1.06898,0.635645
830,14821,1.06898,0.639941
832,14865,1.06919,0.644434
834,14907,1.06919,0.648535
836,14949,1.06969,0.652832
838,14991,1.06969,0.656934
840,15033,1.06969,0.661133
842,15078,1.07285,0.665625
844,15120,1.07285,0.669922
846,15164,1.07421,0.674219
848,15295,1.07545,0.687305
850,15339,1.0769,0.691797
852,15382,1.0769,0.696094
854,15426,1.07626,0.700488
856,15470,1.07626,0.704883
858,15512,1.07682,0.709082
860,15554,1.07682,0.713281
862,15596,1.07682,0.71748
864,15638,1.07566,0.721582
866,15684,1.07566,0.72627
868,15727,1.07312,0.730566
870,15770,1.07312,0.734863
872,15814,1.07227,0.739258
874,15861,1.07227,0.743945
876,15906,1.07097,0.7484375
878,15949,1.07097,0.752832
880,15996,1.07289,0.757422
882,16037,1.07289,0.761621
884,16080,1.07289,0.765918
886,16124,1.07653,0.770215
888,16214,1.07908,0.779297
890,16257,1.07908,0.783594
892,16300,1.08324,0.787891
894,16344,1.08324,0.792285
896,16387,1.08555,0.796484
898,16431,1.08555,0.800977
900,16474,1.08738,0.805273
902,16518,1.08738,0.809668
904,16560,1.08996,0.813965
906,16606,1.08996,0.818457
908,16648,1.08996,0.822656
910,16691,1.08971,0.826953
912,16734,1.08971,0.83125
914,16777,1.09021,0.835547
916,16888,1.09044,0.84668
918,16938,1.09044,0.8515625
920,16991,1.08971,0.856934
922,17034,1.08971,0.861328
924,17077,1.09045,0.865527
926,17119,1.09045,0.869727
928,17201,1.0888,0.87793
930,17256,1.08639,0.883398
932,17299,1.08639,0.887793
934,17343,1.08412,0.89209
936,17384,1.08412,0.896289
938,17427,1.07968,0.900488
940,17470,1.07968,0.904883
942,17513,1.07669,0.90918
944,17556,1.07669,0.913477
946,17601,1.07669,0.917969
948,17643,1.07253,0.922168
950,17686,1.07253,0.926465
952,17730,1.06731,0.930859
954,17771,1.06731,0.934961
956,17820,1.06438,0.939844
958,17863,1.06438,0.944141
960,17907,1.06099,0.948535
962,17953,1.06099,0.953125
964,17996,1.0602,0.957422
966,18039,1.0602,0.961816
968,18134,1.06102,0.971191
970,18177,1.06102,0.975586
972,18225,1.06087,0.980273
974,18269,1.06087,0.984766
976,18312,1.06275,0.9890625
978,18357,1.06275,0.993555
980,18402,1.0637,0.998047
982,18445,1.0637,1.00234
984,18488,1.06459,1.00664
986,18533,1.06459,1.01113
988,18577,1.06631,1.01553
990,18622,1.06631,1.02002
992,18665,1.06485,1.02441
994,18709,1.06485,1.02871
996,18752,1.06398,1.03311
998,18797,1.06398,1.0376
1000,18840,1.06398,1.04189
1002,18887,1.06295,1.04658
1004,18934,1.06295,1.05127
1006,18976,1.06072,1.05547
1008,19070,1.06028,1.06484
1010,19113,1.06028,1.06904
1012,19160,1.05758,1.07383
1014,19203,1.05758,1.078125
1016,19248,1.05439,1.08271
1018,19295,1.05439,1.0873
1020,19340,1.05223,1.0918
1022,19399,1.05223,1.09775
1024,19445,1.04914,1.10234
1026,19490,1.04914,1.10684
1028,19536,1.04787,1.11143
1030,19579,1.04787,1.11582
1032,19623,1.04514,1.12012
1034,19667,1.04514,1.12461
1036,19712,1.0408,1.129
1038,19759,1.0408,1.13369
1040,19804,1.03743,1.13828
1042,19851,1.03743,1.14297
1044,19896,1.03145,1.14746
1046,19942,1.03145,1.15195
1048,19985,1.03145,1.15635
1050,20081,1.02533,1.16592
1052,20126,1.0184,1.17051
1054,20172,1.0184,1.175
1056,20219,1.00864,1.17979
1058,20265,1.00864,1.18428
1060,20310,1.00025,1.18877
1062,20355,1.00025,1.19336
1064,20401,0.991279,1.19795
1066,20447,0.991279,1.20254
1068,20490,0.982962,1.20684
1070,20535,0.982962,1.21133
1072,20580,0.97682,1.21582
1074,20625,0.97682,1.22041
1076,20670,0.969358,1.2248
1078,20713,0.969358,1.2291
1080,20755,0.962774,1.2333
1082,20801,0.962774,1.23799
1084,20849,0.95475,1.24277
1086,20898,0.95475,1.24756
1088,20943,0.943018,1.25215
1090,21044,0.928879,1.26221
1092,21089,0.928879,1.2667
1094,21135,0.91044,1.27129
1096,21180,0.91044,1.27588
1098,21225,0.8915,1.28037
1100,21271,0.8915,1.28496
1102,21315,0.8915,1.28936
1104,21364,0.874269,1.29424
1106,21409,0.874269,1.29873
1108,21453,0.858061,1.303125
1110,21496,0.858061,1.30742
1112,21539,0.845886,1.31172
1114,21587,0.845886,1.3165
1116,21630,0.834556,1.3209
1118,21674,0.834556,1.3252
1120,21721,0.823364,1.32988
1122,21767,0.823364,1.33447
1124,21813,0.814258,1.33916
1126,21859,0.814258,1.34365
1128,21904,0.804098,1.34824
1130,22008,0.794892,1.35869
1132,22053,0.794892,1.36309
1134,22096,0.785709,1.36748
1136,22140,0.785709,1.371875
1138,22187,0.775157,1.37656
1140,22230,0.775157,1.38086
1142,22274,0.766685,1.38525
1144,22322,0.766685,1.39004
1146,22369,0.757911,1.39473
1148,22417,0.757911,1.39961
1150,22463,0.750002,1.4042
1152,22508,0.750002,1.40869
1154,22553,0.750002,1.41309
1156,22597,0.74338,1.41758
1158,22643,0.74338,1.42217
1160,22689,0.733761,1.42676
1162,22772,0.723259,1.43506
1164,22817,0.723259,1.43955
1166,22864,0.71019,1.44424
1168,22910,0.71019,1.44883
1170,23003,0.692701,1.45811
1172,23063,0.672877,1.46416
1174,23107,0.672877,1.46855
1176,23154,0.649108,1.47324
1178,23200,0.649108,1.47783
1180,23244,0.625553,1.48232
1182,23292,0.625553,1.48701
1184,23337,0.606657,1.4916
1186,23382,0.606657,1.49609
1188,23430,0.590404,1.50088
1190,23477,0.590404,1.50547
1192,23521,0.576475,1.50986
1194,23565,0.576475,1.51436
1196,23609,0.561585,1.51865
1198,23653,0.561585,1.52314
1200,23696,0.561585,1.52744
1202,23742,0.545884,1.53203
1204,23789,0.545884,1.53672
1206,23839,0.533102,1.5417
1208,23887,0.533102,1.54658
1210,23938,0.522622,1.55156
1212,24056,0.514283,1.56338
1214,24115,0.505188,1.56934
1216,24159,0.505188,1.57373
1218,24203,0.491694,1.578125
1220,24246,0.491694,1.58252
1222,24292,0.475022,1.58701
1224,24337,0.475022,1.5915
1226,24383,0.456137,1.59609
1228,24430,0.456137,1.60078
1230,24476,0.436302,1.60547
1232,24522,0.436302,1.60996
1234,24568,0.416131,1.61455
1236,24612,0.416131,1.61895
1238,24657,0.393918,1.62354
1240,24704,0.393918,1.62822
1242,24748,0.372201,1.63262
1244,24793,0.372201,1.63711
1246,24837,0.372201,1.6416
1248,24882,0.351345,1.64609
1250,24928,0.351345,1.65068
1252,25039,0.324375,1.66172
1254,25086,0.324375,1.66641
1256,25132,0.315639,1.67109
1258,25177,0.315639,1.67549
1260,25223,0.315639,1.68008
1262,25271,0.308707,1.68486
1264,25316,0.308707,1.68936
1266,25364,0.302763,1.69424
1268,25414,0.296754,1.69922
1270,25464,0.296754,1.7042
1272,25509,0.292118,1.70869
1274,25554,0.292118,1.71318
1276,25603,0.292118,1.71807
1278,25647,0.286401,1.72246
1280,25691,0.286401,1.72695
1282,25738,0.279298,1.73164
1284,25785,0.279298,1.73633
1286,25831,0.272245,1.74092
1288,25877,0.272245,1.74551
1290,25926,0.265115,1.75039
1292,26025,0.258862,1.76025
1294,26081,0.25326,1.76592
1296,26149,0.25326,1.77266
1298,26200,0.247184,1.77773
1300,26248,0.247184,1.78262
1302,26294,0.241262,1.78721
1304,26342,0.241262,1.79199
1306,26389,0.234921,1.79668
1308,26433,0.234921,1.80117
1310,26481,0.226074,1.80596
1312,26529,0.226074,1.81064
1314,26576,0.213823,1.81543
1316,26621,0.213823,1.81992
1318,26668,0.19901,1.82471
1320,26715,0.19901,1.8293
1322,26761,0.184192,1.83389
1324,26807,0.184192,1.83848
1326,26853,0.171483,1.84307
1328,26901,0.171483,1.84785
1330,26947,0.162668,1.85254
1332,27048,0.157503,1.8626
1334,27098,0.157503,1.86768
1336,27148,0.15343,1.87256
1338,27196,0.15343,1.87744
1340,27243,0.150257,1.88213
1342,27288,0.150257,1.88662
1344,27334,0.147867,1.89121
1346,27381,0.147867,1.896
1348,27429,0.145637,1.90068
1350,27476,0.145637,1.90547
1352,27521,0.144368,1.90986
1354,27566,0.144368,1.91445
1356,27617,0.143469,1.91953
1358,27665,0.143469,1.92432
1360,27709,0.142646,1.92871
1362,27752,0.142646,1.93311
1364,27803,0.142089,1.93809
1366,27851,0.142089,1.94287
1368,27897,0.141344,1.94746
1370,27944,0.141344,1.95215
1372,28043,0.140991,1.96211
1374,28090,0.140638,1.9668
1376,28137,0.140638,1.97148
1378,28184,0.140395,1.97617
1380,28229,0.140395,1.98076
1382,28277,0.140974,1.98545
1384,28321,0.140974,1.98994
1386,28372,0.141471,1.99502
1388,28422,0.141471,2.0
1390,28469,0.142205,2.00469
1392,28515,0.142205,2.00928
1394,28562,0.142978,2.01396
1396,28611,0.142978,2.01885
1398,28658,0.142658,2.02363
1400,28705,0.142658,2.02822
1402,28753,0.142177,2.03311
1404,28799,0.142177,2.0377
1406,28848,0.141636,2.04258
1408,28896,0.141636,2.04736
1410,28946,0.141035,2.05234
1412,28996,0.141035,2.05742
1414,29124,0.141068,2.07021
1416,29173,0.140864,2.0751
1418,29223,0.140367,2.08008
1420,29269,0.140367,2.08477
1422,29317,0.139556,2.08955
1424,29367,0.139556,2.09453
1426,29415,0.137796,2.09932
1428,29461,0.137796,2.104
1430,29508,0.136101,2.10859
1432,29556,0.136101,2.11338
1434,29602,0.136101,2.11797
1436,29650,0.134423,2.12275
1438,29699,0.132701,2.12764
1440,29747,0.132701,2.13252
1442,29798,0.131073,2.1376
1444,29850,0.131073,2.14277
1446,29904,0.128937,2.14814
1448,29959,0.128937,2.15361
1450,30009,0.126316,2.15869
1452,30108,0.123121,2.16855
1454,30166,0.123121,2.17441
1456,30214,0.119804,2.1793
1458,30262,0.119804,2.18408
1460,30312,0.116708,2.18906
1462,30364,0.116708,2.19424
1464,30416,0.113712,2.19941
1466,30464,0.111454,2.2042
1468,30511,0.111454,2.20898
1470,30588,0.109992,2.2165
1472,30634,0.109992,2.22119
1474,30683,0.108402,2.22607
1476,30731,0.108402,2.23086
1478,30779,0.106289,2.23564
1480,30826,0.106289,2.24043
1482,30873,0.10338,2.24512
1484,30920,0.10338,2.24971
1486,30972,0.100163,2.25498
1488,31019,0.100163,2.25967
1490,31067,0.0973698,2.26455
1492,31165,0.0952506,2.27422
1494,31222,0.0936393,2.27998
1496,31270,0.0936393,2.28477
1498,31321,0.0910896,2.28994
1500,31371,0.0910896,2.29482
1502,31421,0.0871875,2.2999
1504,31470,0.0871875,2.30479
1506,31516,0.0829109,2.30937
1508,31565,0.0829109,2.31426
1510,31614,0.0782145,2.31914
1512,31663,0.0782145,2.32402
1514,31716,0.0739319,2.32939
1516,31765,0.0739319,2.33428
1518,31815,0.0702564,2.33936
1520,31864,0.0702564,2.34414
1522,31912,0.0662219,2.34902
1524,31967,0.0662219,2.35449
1526,32015,0.0621325,2.359375
1528,32064,0.0621325,2.36426
1530,32112,0.0575685,2.36904
1532,32205,0.0529986,2.37822
1534,32256,0.0529986,2.3834
1536,32306,0.0488818,2.38828
1538,32357,0.0488818,2.39346
1540,32406,0.0447924,2.39834
1542,32456,0.0447924,2.40332
1544,32507,0.0409453,2.4085
1546,32556,0.0365195,2.41338
1548,32608,0.0365195,2.41855
1550,32655,0.0312494,2.42324
1552,32706,0.0312494,2.42832
1554,32756,0.0257097,2.4334
1556,32805,0.0257097,2.43828
1558,32855,0.0203896,2.44326
1560,32902,0.0203896,2.44795
1562,32954,0.0158912,2.453125
1564,33002,0.0158912,2.45801
1566,33053,0.0127894,2.46309
1568,33101,0.0127894,2.46787
1570,33150,0.0107918,2.47275
1572,33247,0.00956693,2.48252
1574,33297,0.00956693,2.4875
1576,33346,0.00910308,2.49238
1578,33396,0.00910308,2.49736
1580,33444,0.00872748,2.50215
1582,33494,0.00872748,2.50713
1584,33542,0.00837444,2.51201
1586,33588,0.00837444,2.5166
1588,33637,0.00823127,2.52148
1590,33688,0.00823127,2.52656
1592,33737,0.00817635,2.53145
1594,33786,0.00817635,2.53633
1596,33833,0.00819302,2.54111
1598,33883,0.00819302,2.546
1600,33934,0.00826461,2.55107
1602,33986,0.00829207,2.55635
1604,34036,0.00829207,2.56133
1606,34084,0.00830286,2.56611
1608,34132,0.00830286,2.571
1610,34183,0.00834208,2.57607
1612,34231,0.00834208,2.58096
1614,34278,0.00847937,2.58555
1616,34382,0.00857842,2.596
1618,34432,0.00857842,2.60098
1620,34484,0.00859509,2.60605
1622,34533,0.00859509,2.61104
1624,34583,0.00858431,2.61602
1626,34631,0.00858431,2.6209
1628,34685,0.00853429,2.62617
1630,34733,0.00853429,2.63105
1632,34783,0.00849605,2.63613
1634,34832,0.00849605,2.64102
1636,34883,0.00847937,2.64609
1638,34932,0.00847937,2.65098
1640,34983,0.00850683,2.65605
1642,35031,0.00850193,2.66094
1644,35081,0.00850193,2.66582
1646,35132,0.00853429,2.671
1648,35179,0.00853429,2.67568
1650,35229,0.00859509,2.68066
1652,35279,0.00859509,2.68564
1654,35387,0.00856763,2.69648
1656,35453,0.0085186,2.70303
1658,35502,0.0085186,2.70801
1660,35549,0.00843524,2.7126
1662,35598,0.00843524,2.71758
1664,35650,0.0083362,2.72275
1666,35701,0.0083362,2.72783
1668,35751,0.0083362,2.73281
1670,35802,0.00844113,2.73799
1672,35852,0.00844113,2.74297
1674,35903,0.00857842,2.74805
1676,35950,0.00857842,2.75273
1678,36000,0.00866766,2.75781
1680,36049,0.00866766,2.7627
1682,36098,0.00870002,2.76748
1684,36140,0.00870002,2.77178
1686,36184,0.00868335,2.77617
1688,36227,0.00868335,2.78047
1690,36271,0.00868335,2.78486
1692,36316,0.00868335,2.78945
1694,36366,0.00874415,2.79434
1696,36474,0.00880496,2.80518
1698,36525,0.00880496,2.81025
1700,36574,0.00884909,2.81514
1702,36622,0.00884909,2.81992
1704,36674,0.00885497,2.8252
1706,36724,0.00885497,2.83018
1708,36773,0.0087775,2.83506
1710,36826,0.0087775,2.84033
1712,36878,0.0087167,2.84551
1714,36927,0.0087167,2.85049
1716,36978,0.00863922,2.85557
1718,37029,0.00861765,2.86064
1720,37079,0.00861765,2.865625
1722,37130,0.00863432,2.8708
1724,37181,0.00863432,2.87578
1726,37234,0.00870002,2.88115
1728,37285,0.00870002,2.88623
1730,37340,0.00876083,2.8917
1732,37392,0.00876083,2.89697
1734,37441,0.00872258,2.90186
1736,37566,0.00875592,2.91436
1738,37617,0.00876671,2.91953
1740,37669,0.00876671,2.92461
1742,37718,0.00870591,2.92959
1744,37767,0.00870591,2.93447
1746,37821,0.00868335,2.93975
1748,37871,0.00868335,2.94482
1750,37921,0.00859509,2.9499
1752,37976,0.00859509,2.95527
1754,38029,0.00847447,2.96064
1756,38082,0.00847937,2.96602
1758,38133,0.00847937,2.971
1760,38183,0.00844113,2.97598
1762,38233,0.00844113,2.98105
1764,38283,0.00839111,2.98604
1766,38334,0.00839111,2.99111
1768,38387,0.00841857,2.99648
1770,38441,0.00841857,3.00176
1772,38493,0.008397,3.00703
1774,38644,0.00844603,3.02178
1776,38706,0.00847937,3.02832
1778,38759,0.00843034,3.03369
1780,38809,0.00843034,3.03867
1782,38860,0.00843034,3.04375
1784,38908,0.00843034,3.04854
1786,38957,0.00843524,3.05342
1788,39057,0.008397,3.06348
1790,39107,0.008397,3.06836
1792,39159,0.00835777,3.07363
1794,39211,0.00835777,3.07881
1796,39263,0.00824205,3.08408
1798,39317,0.00809888,3.08945
1800,39371,0.00809888,3.09492
1802,39424,0.00808809,3.1002
1804,39476,0.00808809,3.10527
1806,39525,0.00814301,3.11025
1808,39575,0.00814301,3.11523
1810,39627,0.00820871,3.12051
1812,39729,0.00831364,3.13066
1814,39786,0.00831364,3.13633
1816,39844,0.00834699,3.14219
1818,39906,0.00836366,3.14834