File: tensile_tests/04.03.25_BL_Force_Paper1.csv
,Time,Force (Newtons),Distance (millimeters)
0,2,-0.000248634,0.0
5,71,-0.000248634,0.0
10,136,-0.000219214,0.0
15,199,-0.000396714,0.0
20,264,-0.000396714,0.0
25,331,-0.000516355,0.0
30,399,-0.000625209,0.0
35,468,-0.000533027,0.0
40,540,-0.000533027,0.0
45,610,-0.000208427,0.0
50,684,-3.09263e-05,0.0
55,751,0.000327997,0.0
60,820,0.000327997,0.0
65,888,0.00046529,0.0
70,959,0.000396644,0.0
75,1031,0.000556492,0.0
80,1099,0.000556492,0.0
85,1172,0.000511381,0.0
90,1241,0.000453522,0.0
95,1411,0.00036232,0.0
100,1478,0.00036232,0.0
105,1546,0.000562376,0.0
110,1613,0.00084775,0.0
115,1685,0.00084775,0.0
120,1751,0.00122432,0.0
125,1824,0.00148714,0.0
130,1895,0.00161267,0.0
135,1962,0.00161267,0.0
140,2032,0.00165288,0.0
145,2105,0.00154991,0.0
150,2175,0.00137829,0.0
155,2248,0.00137829,0.0
160,2320,0.00121844,0.0
165,2388,0.00113901,0.0
170,2458,0.00110468,0.0
175,2526,0.00110468,0.0
180,2597,0.00117823,0.0
185,2669,0.00139006,0.0
190,2738,0.00139006,0.0
195,2805,0.00164699,0.0
200,2874,0.00185783,0.0
205,2943,0.00208633,0.0
210,3012,0.00208633,0.0
215,3080,0.00201768,0.0
220,3156,0.00194315,0.0
225,3230,0.00216576,0.0
230,3301,0.00216576,0.0
235,3368,0.00232561,0.0
240,3437,0.00257176,0.0
245,3509,0.0026002,0.0
250,3577,0.0026002,0.0
255,3647,0.0024227,0.0
260,3714,0.00229717,0.0
265,3783,0.00229717,0.0
270,3852,0.00235405,0.0
275,3922,0.00266786,0.0
280,3992,0.00288557,0.0
285,4057,0.00288557,0.0
290,4124,0.00303954,0.0
295,4191,0.00294245,0.0
300,4262,0.00294245,0.0
305,4331,0.00273063,0.0
310,4401,0.00261687,0.0
315,4474,0.00258843,0.0
320,4545,0.00258843,0.0
325,4614,0.00279927,0.0
330,4689,0.00284536,0.0
335,4760,0.0027826,0.0
340,4831,0.0027826,0.0
345,4910,0.00272572,0.0
350,4978,0.00252567,0.0
355,5045,0.00243447,0.0
360,5112,0.00243447,0.0
365,5180,0.00242858,0.0
370,5245,0.00252567,0.0
375,5311,0.00266786,0.0
380,5379,0.00266786,0.0
385,5444,0.0026051,0.0
390,5512,0.00249134,0.0
395,5580,0.00249134,0.0
400,5655,0.00233738,0.0
405,5725,0.00213732,0.0
410,5791,0.00224618,0.0
415,5858,0.00224618,0.0
420,5923,0.00235994,0.0
425,5986,0.00238249,0.0
430,6051,0.00238249,0.0
435,6116,0.00245702,0.0
440,6180,0.00252567,0.0
445,6247,0.00252567,0.0
450,6314,0.00257176,0.0
455,6381,0.00263452,0.0
460,6447,0.00263452,0.0
465,6512,0.00257176,0.0
470,6578,0.00229717,0.0
475,6642,0.00229717,0.0
480,6712,0.00229717,0.0
485,6787,0.00248546,0.0
490,6858,0.0026002,0.0
495,6927,0.0026002,0.0
500,6997,0.00277083,0.0
505,7069,0.00280516,0.0
510,7142,0.00255411,0.0
515,7216,0.0023717,0.0
520,7285,0.0023717,0.0
525,7358,0.00234326,0.0
530,7431,0.00229717,0.0
535,7501,0.00229717,0.0
540,7574,0.0023315,0.0
545,7647,0.00239426,0.0
550,7715,0.00245702,0.0
555,7784,0.00245702,0.0
560,7852,0.00241191,0.0
565,7922,0.00234326,0.0
570,7990,0.00240014,0.0
575,8061,0.00240014,0.0
580,8131,0.00241681,0.0
585,8198,0.00256587,0.0
590,8268,0.00281692,0.0
595,8340,0.00281692,0.0
600,8414,0.00305621,0.0
605,8489,0.00309641,0.0
610,8561,0.00294833,0.0
615,8637,0.00294833,0.0
620,8718,0.00265708,0.0
625,8798,0.00236582,0.0
630,8865,0.0023717,0.0
635,8934,0.00262864,0.0
640,9004,0.00262864,0.0
645,9075,0.00281692,0.0
650,9152,0.00289047,0.0
655,9223,0.00279927,0.0
660,9295,0.00279927,0.0
665,9364,0.00254822,0.0
670,9437,0.00247958,0.0
675,9506,0.0026051,0.0
680,9579,0.0026051,0.0
685,9655,0.00269728,0.0
690,9729,0.00265119,0.0
695,9805,0.00262275,0.0
700,9876,0.00262275,0.0
705,9947,0.00257176,0.0
710,10020,0.00250802,0.0
715,10093,0.00246879,0.0
720,10172,0.00233738,0.0
725,10245,0.00233738,0.0
730,10314,0.0022805,0.0
735,10390,0.00229129,0.0
740,10461,0.00245114,0.0
745,10531,0.00245114,0.0
750,10606,0.00265708,0.0
755,10680,0.00261099,0.0
760,10759,0.00257176,0.0
765,10830,0.00257176,0.0
770,10902,0.00263942,0.0
775,10975,0.00255999,0.0
780,11045,0.00254822,0.0
785,11115,0.00254822,0.0
790,11189,0.00267375,0.0
795,11258,0.00267375,0.0
800,11327,0.00272572,0.0
805,11396,0.00272572,0.0
810,11470,0.00276005,0.0
815,11544,0.00256587,0.0
820,11619,0.00238837,0.0
825,11690,0.00238837,0.0
830,11765,0.00238249,0.0
835,11842,0.00240603,0.0
840,11912,0.0023315,0.0
845,11987,0.00214909,0.0
850,12060,0.00214909,0.0
855,12131,0.00204612,0.0
860,12205,0.00204024,0.0
865,12273,0.00230306,0.0
870,12343,0.00230306,0.0
875,12417,0.00250802,0.0
880,12489,0.00243447,0.0
885,12562,0.00241681,0.0
890,12635,0.00241681,0.0
895,12708,0.00235994,0.0
900,12780,0.00237759,0.0
905,12851,0.0022805,0.0
910,12918,0.0022805,0.0
915,12989,0.00213732,0.0
920,13059,0.00192648,0.0
925,13136,0.00176075,0.0
930,13212,0.00176075,0.0
935,13283,0.0019206,0.0
940,13354,0.00190393,0.0
945,13425,0.00198924,0.0
950,13497,0.00198924,0.0
955,13568,0.00202357,0.0
960,13645,0.00175486,0.0
965,13713,0.00158423,0.0
970,13792,0.00139594,0.0
975,13866,0.00139594,0.0
980,13936,0.00140673,0.0
985,14010,0.00156658,0.0
990,14080,0.00174898,0.0
995,14155,0.00174898,0.0
1000,14226,0.00181763,0.0
1005,14295,0.00163522,0.0
1010,14364,0.00157246,0.0
1015,14435,0.00157246,0.0
1020,14510,0.00146949,0.0
1025,14583,0.00133318,0.0
1030,14657,0.00128709,0.0
1035,14731,0.00128709,0.0
1040,14805,0.00136162,0.0
1045,14877,0.00139006,0.0
1050,14951,0.00148126,0.0
1055,15022,0.00148126,0.0
1060,15096,0.00156069,0.0
1065,15174,0.00141261,0.0
1070,15246,0.00127042,0.0
1075,15317,0.00119,0.0
1080,15390,0.00119,0.0
1085,15464,0.00113312,0.0
1090,15540,0.00111057,0.0
1095,15610,0.00112136,0.0
1100,15686,0.00112136,0.0
1105,15759,0.00115568,0.0
1110,15830,0.00125865,0.0
1115,15899,0.00139006,0.0
1120,15970,0.00139006,0.0
1125,16040,0.00156069,0.0
1130,16113,0.0016009,0.0
1135,16185,0.00165778,0.0
1140,16256,0.00165778,0.0
1145,16329,0.00163522,0.0
1150,16407,0.00151558,0.0
1155,16477,0.00168131,0.0
1160,16550,0.00181174,0.0
1165,16627,0.00181174,0.0
1170,16700,0.00181763,0.0
1175,16776,0.00177252,0.0
1180,16855,0.00145282,0.0
1185,16928,0.00145282,0.0
1190,17002,0.00132141,0.0
1195,17075,0.00141261,0.0
1200,17146,0.00154402,0.0
1205,17225,0.00173819,0.0
1210,17296,0.00173819,0.0
1215,17369,0.0016009,0.0
1220,17445,0.00149793,0.0
1225,17513,0.00149793,0.0
1230,17587,0.00149793,0.0
1235,17659,0.00139594,0.0
1240,17731,0.00132729,0.0
1245,17797,0.00133808,0.0
1250,17871,0.00133808,0.0
1255,17944,0.00149303,0.0
1260,18023,0.0018294,0.0
1265,18094,0.00209712,0.0
1270,18172,0.00212654,0.0
1275,18245,0.00212654,0.0
1280,18315,0.00198924,0.0
1285,18392,0.00190883,0.0
1290,18469,0.00193237,0.0
1295,18545,0.00193237,0.0
1300,18619,0.00187451,0.0
1305,18690,0.00176663,0.0
1310,18764,0.00161855,0.0
1315,18839,0.00149303,0.0
1320,18913,0.00149303,0.0
1325,18987,0.00162346,0.0
1330,19062,0.0017784,0.0
1335,19137,0.00177252,0.0
1340,19208,0.00177252,0.0
1345,19282,0.00170387,0.0
1350,19357,0.00156069,0.0
1355,19432,0.00149793,0.0
1360,19499,0.00149793,0.0
1365,19576,0.00152147,0.0
1370,19650,0.00166366,0.0
1375,19721,0.00180684,0.0
1380,19796,0.00182351,0.0
1385,19870,0.00182351,0.0
1390,19943,0.00188627,0.0
1395,20019,0.0017784,0.0
1400,20091,0.00171564,0.0
1405,20162,0.00171564,0.0
1410,20237,0.00173231,0.0
1415,20312,0.00169799,0.0
1420,20386,0.00180684,0.0
1425,20456,0.00180096,0.0
1430,20523,0.00180096,0.0
1435,20594,0.0017833,0.0
1440,20673,0.00175486,0.0
1445,20744,0.00166955,0.0
1450,20819,0.00166955,0.0
1455,20893,0.00158913,0.0
1460,20966,0.00157246,0.0
1465,21043,0.00156658,0.0
1470,21120,0.00156658,0.0
1475,21194,0.00156069,0.0
1480,21268,0.00168622,0.0
1485,21337,0.00170975,0.0
1490,21409,0.00181174,0.0
1495,21480,0.00181174,0.0
1500,21549,0.00193825,0.0
1505,21622,0.00200101,0.0
1510,21696,0.00201768,0.0
1515,21764,0.00201768,0.0
1520,21837,0.00190883,0.0
1525,21912,0.0017784,0.0
1530,21983,0.00164699,0.0
1535,22059,0.00164699,0.0
1540,22136,0.00152147,0.0
1545,22209,0.00149303,0.0
1550,22282,0.0016009,0.0
1555,22353,0.0016009,0.0
1560,22424,0.00171564,0.0
1565,22496,0.00176663,0.0
1570,22573,0.00189804,0.0
1575,22646,0.00188039,0.0
1580,22718,0.00188039,0.0
1585,22792,0.00174408,0.0
1590,22866,0.0016921,0.0
1595,22935,0.00169799,0.0
1600,23009,0.00169799,0.0
1605,23083,0.00174898,0.0
1610,23155,0.00186372,0.0
1615,23227,0.00197748,0.0
1620,23296,0.00197748,0.0
1625,23371,0.00195492,0.0
1630,23442,0.00184116,0.0
1635,23514,0.00189216,0.0
1640,23586,0.00189216,0.0
1645,23659,0.00213144,0.0
1650,23731,0.00229129,0.0
1655,23808,0.00253155,0.0
1660,23881,0.00253155,0.0
1665,23958,0.00269728,0.0
1670,24029,0.0027826,0.0
1675,24105,0.00291989,0.0
1680,24179,0.00313662,0.0
1685,24255,0.00313662,0.0
1690,24327,0.00325626,0.0
1695,24397,0.00329647,0.0
1700,24468,0.00341611,0.0
1705,24541,0.00341611,0.0
1710,24612,0.00334746,0.0
1715,24687,0.00331903,0.0
1720,24759,0.00334746,0.0
1725,24832,0.00334746,0.0
1730,24904,0.00322782,0.0
1735,24976,0.00325038,0.0
1740,25050,0.00339846,0.0
1745,25128,0.00331314,0.0
1750,25197,0.00331314,0.0
1755,25266,0.00329647,0.0
1760,25344,0.00332491,0.0
1765,25426,0.00337002,0.0
1770,25496,0.00337002,0.0
1775,25569,0.00361617,0.0
1780,25642,0.00375248,0.0
1785,25712,0.0036044,0.0
1790,25787,0.00345632,0.0
1795,25862,0.00345632,0.0
1800,25936,0.00337002,0.0
1805,26008,0.00334746,0.0
1810,26077,0.00349064,0.0
1815,26146,0.00349064,0.0
1820,26217,0.00353575,0.0
1825,26288,0.00346711,0.0
1830,26359,0.0035132,0.0
1835,26434,0.0035132,0.0
1840,26505,0.00357008,0.0
1845,26577,0.00347299,0.0
1850,26653,0.00355831,0.0
1855,26726,0.00355831,0.0
1860,26805,0.00364951,0.0
1865,26879,0.0037868,0.0
1870,26956,0.00397509,0.0
1875,27028,0.00399765,0.0
1880,27105,0.00399765,0.0
1885,27176,0.00384368,0.0
1890,27252,0.00356419,0.0
1895,27326,0.00349064,0.0
1900,27397,0.00349064,0.0
1905,27473,0.00353575,0.0
1910,27546,0.00379269,0.0
1915,27619,0.00426635,0.0
1920,27686,0.00426635,0.0
1925,27755,0.00448896,0.0
1930,27826,0.00452328,0.0
1935,27902,0.00453505,0.0
1940,27975,0.00453505,0.0
1945,28046,0.00442031,0.0
1950,28115,0.00447229,0.0
1955,28190,0.00456839,0.0
1960,28260,0.00456839,0.0
1965,28335,0.0046086,0.0
1970,28410,0.00459193,0.0
1975,28484,0.00456349,0.0
1980,28561,0.00464881,0.0
1985,28638,0.00464881,0.0
1990,28711,0.00476845,0.0
1995,28785,0.0049685,0.0
2000,28859,0.00514502,0.0
2005,28928,0.00514502,0.0
2010,29005,0.00524211,0.0
2015,29078,0.00524799,0.0
2020,29149,0.00517346,0.0
2025,29220,0.00508815,0.0
2030,29293,0.00508815,0.0
2035,29371,0.00508815,0.0
2040,29446,0.00524211,0.0
2045,29519,0.00541373,0.0
2050,29592,0.00541373,0.0
2055,29661,0.0055167,0.0
2060,29729,0.00557946,0.0
2065,29805,0.00545884,0.0
2070,29877,0.00545884,0.0
2075,29952,0.00538529,0.0
2080,30023,0.00548728,0.0
2085,30095,0.00567066,0.0
2090,30173,0.00583541,0.0
2095,30244,0.00583541,0.0
2100,30314,0.00595015,0.0
2105,30392,0.00574421,0.0
2110,30464,0.00539607,0.0
2115,30534,0.00539607,0.0
2120,30609,0.00527643,0.0
2125,30682,0.0054706,0.0
2130,30757,0.00583051,0.0
2135,30829,0.00583051,0.0
2140,30905,0.00605312,0.0
2145,30977,0.00612079,0.0
2150,31055,0.0059727,0.0
2155,31129,0.00587562,0.0
2160,31206,0.00587562,0.0
2165,31277,0.00582462,0.0
2170,31349,0.00599036,0.0
2175,31426,0.00608156,0.0
2180,31501,0.00617864,0.0
2185,31578,0.00617864,0.0
2190,31655,0.00642969,0.0
2195,31729,0.00642381,0.0
2200,31807,0.00645813,0.0
2205,31882,0.00644637,0.0
2210,31955,0.00644637,0.0
2215,32029,0.00636105,0.0
2220,32109,0.00635516,0.0
2225,32185,0.00626396,0.0
2230,32260,0.00626396,0.0
2235,32331,0.00619532,0.0
2240,32411,0.00615511,0.0
2245,32481,0.00599526,0.0
2250,32555,0.00589916,0.0
2255,32625,0.00589916,0.0
2260,32700,0.00605802,0.0
2265,32775,0.00618355,0.0
2270,32852,0.00616688,0.0
2275,32921,0.00616688,0.0
2280,32985,0.00617864,0.0
2285,33060,0.00613255,0.0
2290,33132,0.00611588,0.0
2295,33211,0.00611588,0.0
2300,33280,0.0063434,0.0
2305,33348,0.00662877,0.0
2310,33426,0.00671507,0.0
2315,33497,0.00671507,0.0
2320,33573,0.00663465,0.0
2325,33642,0.00645813,0.0
2330,33712,0.00611588,0.0
2335,33787,0.00586974,0.0
2340,33858,0.00586974,0.0
2345,33929,0.00576186,0.0
2350,33999,0.00578442,0.0
2355,34069,0.00578442,0.0
2360,34142,0.00589916,0.0
2365,34212,0.00588739,0.0
2370,34282,0.00606391,0.0
2375,34355,0.00606391,0.0
2380,34428,0.00611,0.0
2385,34497,0.00608744,0.0
2390,34576,0.00614432,0.0
2395,34652,0.00595603,0.0
2400,34726,0.00595603,0.0
2405,34797,0.00601291,0.0
2410,34871,0.00622376,0.0
2415,34944,0.00633849,0.0
2420,35016,0.00633849,0.0
2425,35095,0.00650324,0.0
2430,35172,0.00645225,0.0
2435,35246,0.00636693,0.0
2440,35314,0.00639537,0.0
2445,35386,0.00639537,0.0
2450,35459,0.00645225,0.0
2455,35534,0.00660621,0.0
2460,35611,0.00666309,0.0
2465,35686,0.00666309,0.0
2470,35757,0.00658954,0.0
2475,35830,0.00653757,0.0
2480,35900,0.00649246,0.0
2485,35973,0.00649246,0.0
2490,36044,0.00656601,0.0
2495,36124,0.00677195,0.0
2500,36194,0.00680627,0.0
2505,36263,0.00670918,0.0
2510,36331,0.00670918,0.0
2515,36403,0.00657778,0.0
2520,36472,0.00626985,0.0
2525,36545,0.00626985,0.0
2530,36619,0.00611,0.0
2535,36694,0.00628652,0.0
2540,36774,0.00645813,0.0
2545,36845,0.00658366,0.0
2550,36912,0.00658366,0.0
2555,36987,0.00674351,0.0
2560,37062,0.00673174,0.0
2565,37135,0.00672095,0.0
2570,37210,0.00672095,0.0
2575,37280,0.00671507,0.0
2580,37352,0.00685138,0.0
2585,37428,0.00681215,0.0
2590,37500,0.00681215,0.0
2595,37575,0.00672095,0.0
2600,37650,0.00682883,0.0
2605,37720,0.00676606,0.0
2610,37793,0.00684648,0.0
2615,37866,0.00684648,0.0
2620,37942,0.00685138,0.0
2625,38014,0.00662387,0.0
2630,38091,0.00650324,0.0
2635,38162,0.00650324,0.0
2640,38241,0.00653266,0.0
2645,38314,0.00657189,0.0
2650,38391,0.00674351,0.0
2655,38463,0.00672586,0.0
2660,38540,0.00672586,0.0
2665,38612,0.00653757,0.0
2670,38684,0.00641204,0.0
2675,38759,0.0065209,0.0
2680,38829,0.0065209,0.0
2685,38905,0.00665819,0.0
2690,38977,0.00681804,0.0
2695,39048,0.00699456,0.0
2700,39124,0.00690924,0.0
2705,39197,0.00690924,0.0
2710,39270,0.006972,0.0
2715,39340,0.0069318,0.0
2720,39412,0.00681804,0.0
2725,39487,0.00681804,0.0
2730,39561,0.00681804,0.0
2735,39638,0.00665231,0.0
2740,39708,0.00645813,0.0
2745,39783,0.00645813,0.0
2750,39859,0.00633849,0.0
2755,39930,0.0063434,0.0
2760,40004,0.00634928,0.0
2765,40079,0.00631496,0.0
2770,40152,0.00631496,0.0
2775,40223,0.00626985,0.0
2780,40293,0.00616688,0.0
2785,40365,0.00623552,0.0
2790,40445,0.00623552,0.0
2795,40513,0.0063836,0.0
2800,40590,0.00659543,0.0
2805,40662,0.00665819,0.0
2810,40735,0.00665819,0.0
2815,40810,0.00662387,0.0
2820,40884,0.00653266,0.0
2825,40956,0.00645813,0.0
2830,41024,0.00631496,0.0
2835,41096,0.00631496,0.0
2840,41170,0.00616688,0.0
2845,41240,0.0062012,0.0
2850,41310,0.0062012,0.0
2855,41380,0.00630417,0.0
2860,41452,0.00647481,0.0
2865,41524,0.00662877,0.0
2870,41596,0.00657189,0.0
2875,41664,0.00657189,0.0
2880,41735,0.00635516,0.0
2885,41810,0.00633261,0.0
2890,41882,0.0063434,0.0
2895,41957,0.0063434,0.0
2900,42027,0.00644637,0.0
2905,42105,0.00665231,0.0
2910,42179,0.0067033,0.0
2915,42255,0.0067033,0.0
2920,42325,0.00676018,0.0
2925,42397,0.00701123,0.0
2930,42468,0.007023,0.0
2935,42540,0.007023,0.0
2940,42610,0.00694847,0.0
2945,42685,0.00694847,0.0
2950,42757,0.00698867,0.0
2955,42830,0.00698867,0.0
2960,42905,0.00718285,0.0
2965,42974,0.0072917,0.0
2970,43041,0.0073878,0.0
2975,43115,0.0073878,0.0
2980,43195,0.00732504,0.0
2985,43268,0.00758786,0.0
2990,43341,0.00778792,0.0
2995,43413,0.00784479,0.0
3000,43484,0.00784479,0.0
3005,43557,0.00785068,0.0
3010,43629,0.00750843,0.0
3015,43702,0.00728582,0.0
3020,43779,0.00728582,0.0
3025,43852,0.0072966,0.0
3030,43927,0.0073878,0.0
3035,43999,0.00746234,0.0
3040,44076,0.00758198,0.0
3045,44147,0.00758198,0.0
3050,44225,0.00755942,0.0
3055,44297,0.00746822,0.0
3060,44374,0.00745155,0.0
3065,44445,0.00745155,0.0
3070,44513,0.00749666,0.0
3075,44588,0.00760551,0.0
3080,44662,0.0077075,0.0
3085,44731,0.0077075,0.0
3090,44808,0.00783891,0.0
3095,44881,0.00796444,0.0
3100,44957,0.00795365,0.0
3105,45031,0.00790167,0.0
3110,45099,0.00790167,0.0
3115,45257,0.00789089,0.0
3120,45359,0.00789579,0.0
3125,45433,0.00802131,0.0
3130,45509,0.00819881,0.0
3135,45582,0.00819881,0.0
3140,45659,0.00829002,0.0
3145,45730,0.00847242,0.0
3150,45810,0.00848419,0.0
3155,45880,0.00848419,0.0
3160,45958,0.0082959,0.0
3165,46034,0.00819293,0.0
3170,46103,0.00800464,0.0
3175,46178,0.00794188,0.0
3180,46255,0.00794188,0.0
3185,46326,0.0080272,0.0
3190,46397,0.007885,0.0
3195,46471,0.00789089,0.0
3200,46546,0.00789089,0.0
3205,46624,0.00783303,0.0
3210,46699,0.00755354,0.0
3215,46775,0.00768495,0.0
3220,46848,0.00773104,0.0
3225,46925,0.00773104,0.0
3230,46997,0.00771927,0.0
3235,47071,0.00775948,0.0
3240,47143,0.00763984,0.0
3245,47221,0.0075251,0.0
3250,47290,0.0075251,0.0
3255,47365,0.00755354,0.0
3260,47443,0.00765062,0.0
3265,47516,0.00778203,0.0
3270,47591,0.00778203,0.0
3275,47659,0.007936,0.0
3280,47730,0.00790167,0.0
3285,47808,0.007885,0.0
3290,47880,0.007885,0.0
3295,47958,0.00771927,0.0
3300,48027,0.00754765,0.0
3305,48106,0.00753098,0.0
3310,48174,0.0073878,0.0
3315,48246,0.0073878,0.0
3320,48316,0.00735446,0.0
3325,48392,0.0072966,0.0
3330,48463,0.00721717,0.0
3335,48538,0.00721717,0.0
3340,48609,0.00735446,0.0
3345,48685,0.00745645,0.0
3350,48761,0.00761042,0.0
3355,48833,0.00761042,0.0
3360,48904,0.00771339,0.0
3365,48978,0.00771339,0.0
3370,49057,0.00774771,0.0
3375,49128,0.00757119,0.0
3380,49204,0.00757119,0.0
3385,49274,0.00751921,0.0
3390,49345,0.00750254,0.0
3395,49423,0.0075653,0.0
3400,49496,0.0075653,0.0
3405,49568,0.00769671,0.0
3410,49642,0.0077075,0.0
3415,49714,0.0077026,0.0
3420,49791,0.00765062,0.0
3425,49863,0.00765062,0.0
3430,49940,0.00751431,0.0
3435,50014,0.00737113,0.0
3440,50087,0.00739369,0.0
3445,50159,0.00739369,0.0
3450,50233,0.00733681,0.0
3455,50304,0.00723384,0.0
3460,50376,0.0073829,0.0
3465,50452,0.0073829,0.0
3470,50519,0.00744566,0.0
3475,50585,0.00751431,0.0
3480,50652,0.00769671,0.0
3485,50717,0.00769671,0.0
3490,50785,0.00763395,0.0
3495,50853,0.00751921,0.0
3500,50922,0.00751921,0.0
3505,50988,0.00742213,0.0
3510,51055,0.00751431,0.0
3515,51123,0.00772515,0.0
3520,51189,0.00772515,0.0
3525,51258,0.00795365,0.0
3530,51327,0.00814782,0.0
3535,51397,0.00814782,0.0
3540,51469,0.00805073,0.0
3545,51541,0.007885,0.0
3550,51613,0.00774182,0.0
3555,51686,0.00774182,0.0
3560,51757,0.00775948,0.0
3565,51823,0.00780459,0.0
3570,51893,0.00781047,0.0
3575,51966,0.00781047,0.0
3580,52044,0.00774771,0.0
3585,52117,0.00768495,0.0
3590,52192,0.0077938,0.0
3595,52260,0.0077938,0.0
3600,52329,0.00793011,0.0
3605,52400,0.00791932,0.0
3610,52475,0.00778203,0.0
3615,52550,0.00790167,0.0
3620,52627,0.00790167,0.0
3625,52697,0.00793011,0.0
3630,52770,0.00795365,0.0
3635,52842,0.00826746,0.0
3640,52913,0.00826746,0.0
3645,52985,0.00823902,0.0
3650,53055,0.0082959,0.0
3655,53126,0.00843319,0.0
3660,53200,0.00843319,0.0
3665,53272,0.00819293,0.0
3670,53344,0.00801053,0.0
3675,53421,0.00798797,0.0
3680,53496,0.00798797,0.0
3685,53568,0.0081135,0.0
3690,53644,0.00835866,0.0
3695,53714,0.00868915,0.0
3700,53788,0.00885488,0.0
3705,53859,0.00885488,0.0
3710,53934,0.00875191,0.0
3715,54010,0.00862148,0.0
3720,54090,0.00839887,0.0
3725,54160,0.00839887,0.0
3730,54230,0.00826158,0.0
3735,54300,0.00831257,0.0
3740,54372,0.00838122,0.0
3745,54446,0.00838122,0.0
3750,54524,0.00837533,0.0
3755,54592,0.00821058,0.0
3760,54670,0.00819293,0.0
3765,54743,0.00834689,0.0
3770,54814,0.00834689,0.0
3775,54887,0.00862638,0.0
3780,54958,0.0090265,0.0
3785,55029,0.00918046,0.0
3790,55105,0.00918046,0.0
3795,55176,0.00903728,0.0
3800,55249,0.00897452,0.0
3805,55316,0.00883232,0.0
3810,55388,0.00883232,0.0
3815,55460,0.00886076,0.0
3820,55535,0.00892941,0.0
3825,55610,0.00899806,0.0
3830,55685,0.00899806,0.0
3835,55761,0.00914025,0.0
3840,55837,0.00927755,0.0
3845,55910,0.00949427,0.0
3850,55984,0.00953448,0.0
3855,56059,0.00953448,0.0
3860,56133,0.0094776,0.0
3865,56209,0.00939719,0.0
3870,56284,0.00943151,0.0
3875,56355,0.00943151,0.0
3880,56426,0.00944328,0.0
3885,56494,0.00957959,0.0
3890,56562,0.00966001,0.0
3895,56635,0.00966001,0.0
3900,56711,0.00969433,0.0
3905,56789,0.00977965,0.0
3910,56861,0.00991694,0.0
3915,56932,0.0100817,0.0
3920,57003,0.0100817,0.0
3925,57074,0.0100248,0.0
3930,57147,0.00999049,0.0
3935,57225,0.00992773,0.0
3940,57295,0.00992773,0.0
3945,57377,0.00993361,0.0
3950,57455,0.0100248,0.0
3955,57528,0.0100023,0.0
3960,57604,0.00991694,0.0
3965,57679,0.00991694,0.0
3970,57752,0.00976788,0.0
3975,57825,0.00980809,0.0
3980,57896,0.0100307,0.0
3985,57970,0.0100307,0.0
3990,58044,0.0101905,0.0
3995,58119,0.0101905,0.0
4000,58193,0.0100366,0.0
4005,58263,0.00990517,0.0
4010,58332,0.00990517,0.0
4015,58408,0.00992282,0.0
4020,58478,0.010014,0.0
4025,58551,0.0101445,0.0
4030,58626,0.0101445,0.0
4035,58701,0.0101964,0.0
4040,58778,0.00993361,0.0
4045,58850,0.00988262,0.0
4050,58920,0.00988262,0.0
4055,58995,0.00987085,0.0
4060,59070,0.00986496,0.0
4065,59143,0.0100483,0.0
4070,59220,0.0101052,0.0
4075,59290,0.0101052,0.0
4080,59367,0.0101052,0.0
4085,59439,0.0100248,0.0
4090,59513,0.0100189,0.0
4095,59591,0.0100189,0.0
4100,59664,0.0101052,0.0
4105,59735,0.0100993,0.0
4110,59809,0.0100591,0.0
4115,59880,0.0100591,0.0
4120,59956,0.0101562,0.0
4125,60026,0.010014,0.0
4130,60097,0.0100023,0.0
4135,60175,0.0101905,0.0
4140,60242,0.0101905,0.0
4145,60314,0.0101739,0.0
4150,60383,0.0101905,0.0
4155,60455,0.010168,0.0
4160,60526,0.010168,0.0
4165,60598,0.00995617,0.0
4170,60671,0.00977965,0.0
4175,60743,0.00967668,0.0
4180,60816,0.00967668,0.0
4185,60888,0.00974532,0.0
4190,60961,0.00984241,0.0
4195,61041,0.00999049,0.0
4200,61112,0.00999049,0.0
4205,61189,0.0101964,0.0
4210,61261,0.010168,0.0
4215,61334,0.0101905,0.0
4220,61411,0.0101503,0.0
4225,61485,0.0101503,0.0
4230,61560,0.0100817,0.0
4235,61631,0.0100876,0.0
4240,61706,0.010116,0.0
4245,61778,0.010116,0.0
4250,61856,0.0100533,0.0
4255,61927,0.00995126,0.0
4260,61999,0.00993949,0.0
4265,62075,0.00999049,0.0
4270,62148,0.00999049,0.0
4275,62224,0.010116,0.0
4280,62291,0.0101847,0.0
4285,62361,0.0100533,0.0
4290,62429,0.0100533,0.0
4295,62494,0.00995126,0.0
4300,62564,0.00980809,0.0
4305,62636,0.00980809,0.0
4310,62707,0.00977376,0.0
4315,62778,0.00977965,0.0
4320,62846,0.00977376,0.0
4325,62914,0.00977376,0.0
4330,62983,0.00995126,0.0
4335,63051,0.00996205,0.0
4340,63119,0.0100307,0.0
4345,63194,0.0100307,0.0
4350,63269,0.0100591,0.0
4355,63342,0.0099797,0.0
4360,63414,0.0100081,0.0
4365,63487,0.0100081,0.0
4370,63559,0.0100307,0.0
4375,63629,0.0100993,0.0
4380,63701,0.0101964,0.0
4385,63773,0.0101964,0.0
4390,63844,0.0101621,0.0
4395,63917,0.0101219,0.0
4400,63986,0.00999637,0.0
4405,64061,0.00999637,0.0
4410,64131,0.00971688,0.0
4415,64205,0.00973944,0.0
4420,64278,0.00987085,0.0
4425,64349,0.00987085,0.0
4430,64428,0.00999049,0.0
4435,64507,0.0103386,0.0
4440,64579,0.0104936,0.0
4445,64655,0.0104416,0.0
4450,64730,0.0104416,0.0
4455,64805,0.0103161,0.0
4460,64882,0.00999049,0.0
4465,64955,0.00976788,0.0
4470,65027,0.00976298,0.0
4475,65103,0.00976298,0.0
4480,65178,0.00987085,0.0
4485,65248,0.0100248,0.0
4490,65319,0.0101111,0.0
4495,65393,0.0101111,0.0
4500,65465,0.0100023,0.0
4505,65539,0.00994538,0.0
4510,65612,0.010014,0.0
4515,65692,0.0100425,0.0
4520,65766,0.0100425,0.0
4525,65835,0.0101052,0.0
4530,65905,0.0101562,0.0
4535,65976,0.0100709,0.0
4540,66048,0.0100709,0.0
4545,66126,0.0100876,0.0
4550,66202,0.0100425,0.0
4555,66276,0.00979632,0.0
4560,66346,0.00979632,0.0
4565,66422,0.00968256,0.0
4570,66495,0.00964824,0.0
4575,66566,0.00968256,0.0
4580,66632,0.00968256,0.0
4585,66705,0.00983064,0.0
4590,66779,0.00975121,0.0
4595,66851,0.00961391,0.0
4600,66926,0.00961391,0.0
4605,66997,0.00964235,0.0
4610,67074,0.00962568,0.0
4615,67149,0.00973356,0.0
4620,67220,0.00973944,0.0
4625,67292,0.00973944,0.0
4630,67363,0.00954527,0.0
4635,67439,0.00938052,0.0
4640,67511,0.00927755,0.0
4645,67591,0.00927755,0.0
4650,67664,0.00937463,0.0
4655,67738,0.0096198,0.0
4660,67810,0.00981985,0.0
4665,67882,0.0100248,0.0
4670,67959,0.0100248,0.0
4675,68035,0.010065,0.0
4680,68110,0.0098934,0.0
4685,68182,0.00990517,0.0
4690,68251,0.00990517,0.0
4695,68324,0.0100023,0.0
4700,68395,0.00994538,0.0
4705,68467,0.00992773,0.0
4710,68540,0.00992773,0.0
4715,68612,0.00983064,0.0
4720,68685,0.00957469,0.0
4725,68785,0.00947172,0.0
4730,68854,0.00950016,0.0
4735,68925,0.00950016,0.0
4740,68998,0.00951094,0.0
4745,69070,0.00956292,0.0
4750,69145,0.00956292,0.0
4755,69220,0.00959724,0.0
4760,69289,0.00959724,0.0
4765,69362,0.00963745,0.0
4770,69438,0.00964824,0.0
4775,69512,0.00977376,0.0
4780,69584,0.00977376,0.0
4785,69657,0.00985908,0.0
4790,69728,0.00987673,0.0
4795,69802,0.00995126,0.0
4800,69875,0.00995126,0.0
4805,69947,0.00984829,0.0
4810,70027,0.00973944,0.0
4815,70100,0.00987085,0.0
4820,70178,0.0100768,0.0
4825,70251,0.0100768,0.0
4830,70325,0.010168,0.0
4835,70397,0.0102082,0.0
4840,70470,0.0101905,0.0
4845,70545,0.0101905,0.0
4850,70625,0.0100533,0.0
4855,70697,0.00996793,0.0
4860,70769,0.00983652,0.0
4865,70837,0.00962568,0.0
4870,70912,0.00962568,0.0
4875,70987,0.00938052,0.0
4880,71059,0.00931775,0.0
4885,71132,0.00931775,0.0
4890,71205,0.00931775,0.0
4895,71276,0.00925499,0.0
4900,71352,0.00933442,0.0
4905,71428,0.00944818,0.0
4910,71504,0.00941484,0.0
4915,71579,0.00941484,0.0
4920,71647,0.00949427,0.0
4925,71725,0.00941974,0.0
4930,71797,0.0092089,0.0
4935,71872,0.0092089,0.0
4940,71945,0.00909514,0.0
4945,72015,0.00900884,0.0
4950,72091,0.00907161,0.0
4955,72163,0.00907161,0.0
4960,72241,0.00924911,0.0
4965,72313,0.00951094,0.0
4970,72388,0.00966589,0.0
4975,72460,0.00975709,0.0
4980,72534,0.00975709,0.0
4985,72611,0.00973944,0.0
4990,72684,0.0095688,0.0
4995,72760,0.0095286,0.0
5000,72831,0.0095286,0.0
5005,72901,0.00935208,0.0
5010,72974,0.00925499,0.0
5015,73044,0.0093913,0.0
5020,73115,0.0093913,0.0
5025,73184,0.00916869,0.0
5030,73257,0.00916281,0.0
5035,73332,0.00918634,0.0
5040,73402,0.00918634,0.0
5045,73472,0.00912358,0.0
5050,73544,0.00931187,0.0
5055,73613,0.00951094,0.0
5060,73687,0.00951094,0.0
5065,73763,0.00966589,0.0
5070,73834,0.00979141,0.0
5075,73909,0.00979632,0.0
5080,73983,0.00944818,0.0
5085,74055,0.00944818,0.0
5090,74128,0.00919223,0.0
5095,74204,0.00908337,0.0
5100,74274,0.00916869,0.0
5105,74348,0.00916869,0.0
5110,74424,0.00943151,0.0
5115,74496,0.0096198,0.0
5120,74566,0.00963157,0.0
5125,74643,0.0095688,0.0
5130,74719,0.0095688,0.0
5135,74791,0.00948839,0.0
5140,74863,0.00932854,0.0
5145,74937,0.00916281,0.0
5150,75007,0.00916281,0.0
5155,75080,0.00900394,0.0
5160,75158,0.0090265,0.0
5165,75232,0.00927166,0.0
5170,75304,0.00927166,0.0
5175,75378,0.00941974,0.0
5180,75451,0.0094776,0.0
5185,75526,0.00944818,0.0
5190,75599,0.00932266,0.0
5195,75675,0.00932266,0.0
5200,75747,0.00919223,0.0
5205,75821,0.00911181,0.0
5210,75893,0.00910593,0.0
5215,75959,0.00910593,0.0
5220,76032,0.0091579,0.0
5225,76107,0.00927755,0.0
5230,76177,0.00941484,0.0
5235,76252,0.00941484,0.0
5240,76320,0.00968844,0.0
5245,76394,0.00973356,0.0
5250,76465,0.00975121,0.0
5255,76541,0.00975121,0.0
5260,76617,0.00992773,0.0
5265,76684,0.00978553,0.0
5270,76754,0.00964824,0.0
5275,76824,0.00964824,0.0
5280,76898,0.00963745,0.0
5285,76968,0.00953448,0.0
5290,77042,0.00941484,0.0
5295,77116,0.00941484,0.0
5300,77193,0.00939719,0.0
5305,77264,0.00941484,0.0
5310,77338,0.00936875,0.0
5315,77412,0.00951094,0.0
5320,77482,0.00951094,0.0
5325,77554,0.00972865,0.0
5330,77627,0.0098022,0.0
5335,77697,0.00985418,0.0
5340,77770,0.00985418,0.0
5345,77844,0.00976788,0.0
5350,77916,0.0094825,0.0
5355,77988,0.00946583,0.0
5360,78062,0.00946583,0.0
5365,78139,0.00945995,0.0
5370,78213,0.00949427,0.0
5375,78283,0.00962568,0.0
5380,78355,0.00962568,0.0
5385,78428,0.00941484,0.0
5390,78501,0.00915202,0.0
5395,78578,0.00908926,0.0
5400,78655,0.00910593,0.0
5405,78727,0.00910593,0.0
5410,78798,0.00925989,0.0
5415,78871,0.00956292,0.0
5420,78947,0.00949427,0.0
5425,79026,0.00932266,0.0
5430,79097,0.00932266,0.0
5435,79169,0.00929422,0.0
5440,79239,0.00919713,0.0
5445,79311,0.00922557,0.0
5450,79385,0.00922557,0.0
5455,79457,0.0091579,0.0
5460,79531,0.0089804,0.0
5465,79611,0.00886076,0.0
5470,79688,0.00886076,0.0
5475,79759,0.00871857,0.0
5480,79830,0.00883821,0.0
5485,79905,0.00906082,0.0
5490,79975,0.00906082,0.0
5495,80047,0.00922067,0.0
5500,80127,0.00934619,0.0
5505,80199,0.00940307,0.0
5510,80269,0.00935698,0.0
5515,80343,0.00935698,0.0
5520,80417,0.00927755,0.0
5525,80489,0.00941484,0.0
5530,80560,0.00944818,0.0
5535,80630,0.00944818,0.0
5540,80700,0.00945407,0.0
5545,80775,0.0094776,0.0
5550,80846,0.00944818,0.0
5555,80914,0.00944818,0.0
5560,80990,0.00949427,0.0
5565,81064,0.00966589,0.0
5570,81145,0.00983064,0.0
5575,81218,0.00977965,0.0
5580,81287,0.00977965,0.0
5585,81362,0.00971688,0.0
5590,81434,0.00955115,0.0
5595,81505,0.00934619,0.0
5600,81578,0.00934619,0.0
5605,81659,0.00923734,0.0
5610,81731,0.00906082,0.0
5615,81808,0.00896373,0.0
5620,81879,0.00888332,0.0
5625,81955,0.00888332,0.0
5630,82025,0.0089402,0.0
5635,82098,0.0090667,0.0
5640,82173,0.0090265,0.0
5645,82246,0.0090265,0.0
5650,82315,0.00903238,0.0
5655,82390,0.00895785,0.0
5660,82464,0.00888332,0.0
5665,82538,0.00888332,0.0
5670,82609,0.00884409,0.0
5675,82683,0.00875779,0.0
5680,82762,0.00868915,0.0
5685,82833,0.00858716,0.0
5690,82902,0.00858716,0.0
5695,82974,0.00856362,0.0
5700,83048,0.00876368,0.0
5705,83121,0.0090265,0.0
5710,83189,0.0090265,0.0
5715,83258,0.00916869,0.0
5720,83329,0.0091177,0.0
5725,83404,0.0091177,0.0
5730,83477,0.00895197,0.0
5735,83548,0.00892941,0.0
5740,83619,0.0090667,0.0
5745,83690,0.00925989,0.0
5750,83765,0.00925989,0.0
5755,83841,0.00928931,0.0
5760,83911,0.00910005,0.0
5765,83985,0.00888332,0.0
5770,84061,0.00888332,0.0
5775,84132,0.00886665,0.0
5780,84210,0.00897452,0.0
5785,84282,0.00915202,0.0
5790,84358,0.00936875,0.0
5795,84431,0.00936875,0.0
5800,84500,0.0093913,0.0
5805,84577,0.00945995,0.0
5810,84655,0.00950016,0.0
5815,84729,0.00950016,0.0
5820,84805,0.00931775,0.0
5825,84878,0.00916869,0.0
5830,84957,0.00892941,0.0
5835,85029,0.00875191,0.0
5840,85111,0.00875191,0.0
5845,85185,0.008849,0.0
5850,85262,0.00900394,0.0
5855,85332,0.00899806,0.0
5860,85405,0.00905493,0.0
5865,85476,0.00905493,0.0
5870,85549,0.00921478,0.0
5875,85625,0.00928343,0.0
5880,85700,0.00931775,0.0
5885,85777,0.00931775,0.0
5890,85852,0.00910593,0.0
5895,85924,0.00876956,0.0
5900,85997,0.00867248,0.0
5905,86069,0.00867248,0.0
5910,86145,0.00890685,0.0
5915,86226,0.00927166,0.0
5920,86295,0.00948839,0.0
5925,86365,0.00943151,0.0
5930,86440,0.00943151,0.0
5935,86511,0.00922557,0.0
5940,86581,0.00914614,0.0
5945,86656,0.00898629,0.0
5950,86729,0.00898629,0.0
5955,86797,0.00876368,0.0
5960,86865,0.00877545,0.0
5965,86933,0.00886665,0.0
5970,87010,0.00886665,0.0
5975,87082,0.00897452,0.0
5980,87156,0.00932854,0.0
5985,87228,0.00953448,0.0
5990,87297,0.00953448,0.0
5995,87377,0.00935208,0.0
6000,87464,0.00932266,9.765625e-05
6005,87674,0.00903238,0.00126953
6010,87912,0.00941974,0.00498047
6015,88108,0.00954036,0.00986328
6020,88289,0.00973356,0.0158203
6025,88465,0.0100425,0.0230469
6030,88640,0.0103161,0.0314453
6035,88883,0.0105612,0.0454102
6040,89055,0.010777,0.0568359
6045,89236,0.0111938,0.0701172
6050,89414,0.0117478,0.084668
6055,89594,0.0122617,0.100781
6060,89772,0.0126098,0.118066
6065,89949,0.01326,0.135742
6070,90122,0.0144358,0.153027
6075,90303,0.0161648,0.171191
6080,90481,0.0186194,0.188965
6085,90657,0.0229686,0.206543
6090,90835,0.0301598,0.224316
6095,91017,0.0350053,0.24248
6100,91292,0.0558317,0.270117
6105,91476,0.0734954,0.288477
6110,91654,0.0934539,0.30625
6115,91842,0.115667,0.325098
6120,92018,0.13893,0.342676
6125,92199,0.163438,0.360742
6130,92385,0.189691,0.379297
6135,92567,0.217778,0.397559
6140,92749,0.247302,0.415723
6145,92931,0.276301,0.433887
6150,93112,0.290763,0.452051
6155,93282,0.320173,0.469043
6160,93535,0.366283,0.494336
6165,93717,0.399345,0.5125
6170,94019,0.447372,0.542676
6175,94201,0.478032,0.5609375
6180,94384,0.509936,0.579199
6185,94566,0.544425,0.597363
6190,94749,0.580468,0.615723
6195,94931,0.613404,0.633984
6200,95111,0.629248,0.651953
6205,95291,0.661198,0.669922
6210,95472,0.6924,0.688086
6215,95651,0.725799,0.705957
6220,95838,0.762304,0.724707
6225,96018,0.795401,0.742676
6230,96297,0.84219,0.770605
6235,96474,0.872039,0.788184
6240,96658,0.903201,0.806641
6245,96839,0.934974,0.824707
6250,97021,0.962426,0.842969
6255,97199,0.974782,0.860742
6260,97385,1.00401,0.879395
6265,97584,1.03323,0.899219
6270,97764,1.06358,0.9171875
6275,97947,1.09021,0.935547
6280,98128,1.11502,0.953613
6285,98310,1.14217,0.971777
6290,98495,1.16547,0.990332
6295,98672,1.18489,1.00801
6300,98856,1.20255,1.02646
6305,99038,1.22417,1.04463
6310,99217,1.24811,1.0625
6315,99397,1.25538,1.08047
6320,99581,1.26601,1.09893
6325,99872,1.27994,1.12803
6330,100071,1.29459,1.14785
6335,100293,1.31291,1.17002
6340,100502,1.3261,1.19111
6345,100704,1.33223,1.21123
6350,100928,1.34595,1.23359
6355,101131,1.35701,1.25391
6360,101370,1.36069,1.27783
6365,101560,1.35603,1.29678
6370,101752,1.35003,1.31602
6375,101938,1.34725,1.33467
6380,102126,1.35458,1.35332
6385,102312,1.36939,1.37197
6390,102584,1.38879,1.39922
6395,102763,1.40433,1.41709
6400,102949,1.40693,1.43564
6405,103132,1.40158,1.4541
6410,103323,1.39209,1.47314
6415,103509,1.37326,1.4917
6420,103696,1.35454,1.51045
6425,103897,1.32366,1.53047
6430,104079,1.28909,1.54873
6435,104260,1.27619,1.5668
6440,104448,1.2776,1.58555
6445,104638,1.28109,1.60459
6450,104825,1.28514,1.62334
6455,105011,1.25238,1.64189
6460,105199,1.18412,1.66064
6465,105385,1.08501,1.6793
6470,105567,0.988731,1.69746
6475,105757,0.927057,1.7165
6480,105948,0.901683,1.73564
6485,106140,0.894235,1.75479
6490,106324,0.870019,1.77324
6495,106507,0.83917,1.7915
6500,106693,0.786606,1.81006
6505,106875,0.729344,1.82832
6510,107067,0.721942,1.84746
6515,107256,0.739389,1.86641
6520,107442,0.751038,1.88506
6525,107628,0.766881,1.90352
6530,107815,0.787662,1.92227
6535,108000,0.773725,1.94082
6540,108184,0.710835,1.95918
6545,108373,0.652946,1.978125
6550,108556,0.633392,1.99639
6555,108837,0.610808,2.02451
6560,109030,0.576815,2.04375
6565,109221,0.522932,2.06289
6570,109410,0.487667,2.08174
6575,109599,0.487689,2.10068
6580,109796,0.493379,2.12041
6585,109990,0.495063,2.13984
6590,110172,0.473398,2.15791
6595,110361,0.447647,2.17695
6600,110547,0.441049,2.19551
6605,110738,0.412843,2.21465
6610,110935,0.371545,2.23428
6615,111123,0.362847,2.25303
6620,111314,0.34734,2.27217
6625,111608,0.276512,2.30156
6630,111802,0.257849,2.3209
6635,111990,0.254726,2.33984
6640,112175,0.246496,2.3583
6645,112361,0.203046,2.37695
6650,112548,0.169499,2.39561
6655,112734,0.169122,2.41416
6660,112925,0.152155,2.4333
6665,113117,0.138325,2.45244
6670,113305,0.136853,2.47129
6675,113488,0.133502,2.48955
6680,113678,0.117043,2.50859
6685,113869,0.0855037,2.52764
6690,114057,0.0599465,2.54648
6695,114374,0.0630278,2.57822
6700,114570,0.0641183,2.59775
6705,114762,0.0617608,2.61689
6710,114953,0.0631141,2.63613
6715,115144,0.0682508,2.65518
6720,115332,0.0752822,2.67402
6725,115523,0.0819027,2.69316
6730,115716,0.0869482,2.7124
6735,115909,0.0876954,2.73164
6740,116098,0.0774396,2.75059
6745,116290,0.0623433,2.76982
6750,116484,0.0546323,2.78916
6755,116679,0.045569,2.80869
6760,116876,0.0363233,2.82842
6765,117175,0.0342629,2.8583
6770,117375,0.0342178,2.87832
6775,117562,0.0341609,2.89697
6780,117760,0.0329851,2.9168
6785,117954,0.0306335,2.93613
6790,118217,0.0270952,2.9624
6795,118408,0.0260106,2.98154
6800,118600,0.0259243,3.00078
6805,118789,0.0273914,3.01963
6810,119080,0.0282819,3.04873
6815,119274,0.0277621,3.06807
6820,119468,0.0278651,3.0876
6825,119656,0.0266441,3.10645
6830,119855,0.0245034,3.12627
6835,120130,0.0253879,3.15371
6840,120322,0.0244641,3.17295
6845,120517,0.0214505,3.19248
6850,120708,0.0200747,3.21152
6855,120901,0.0195098,3.23086
6860,121094,0.0194245,3.2501
6865,121289,0.019601,3.26963
6870,121481,0.0190361,3.28887
6875,121676,0.0172386,3.3084
6880,121876,0.0162275,3.32842
6885,122070,0.0163707,3.34775
6890,122257,0.0163481,3.3665
6895,122456,0.016051,3.38643
6900,122649,0.0157146,3.40566
6905,122951,0.0159716,3.43584
6910,123152,0.0159539,3.45596
6915,123344,0.0160059,3.4752
6920,123532,0.015948,3.49404
6925,123727,0.0160343,3.51348
6930,123930,0.0157087,3.53369
6935,124123,0.0150694,3.55312
6940,124321,0.0148124,3.57285
6945,124517,0.0147781,3.59238
6950,124707,0.0147497,3.61143
6955,124903,0.014276,3.63105
6960,125097,0.0138484,3.65039
6965,125291,0.013665,3.66982
6970,125484,0.0135003,3.68916
6975,125766,0.0132943,3.71738
6980,125971,0.0130492,3.73779
6985,126170,0.0132826,3.75781
6990,126366,0.0133797,3.77734
6995,126563,0.0132316,3.79697
7000,126762,0.0132316,3.81699
7005,126962,0.0131061,3.83691
7010,127159,0.0128491,3.85664
7015,127360,0.0129344,3.87676
7020,127559,0.0128325,3.89668
7025,127764,0.0128207,3.91719
7030,127965,0.0128835,3.9373
7035,128163,0.0123127,3.95713
7040,128368,0.0120617,3.97754
7045,128712,0.0116449,4.01191
7050,128992,0.0119244,4.03994
7055,129198,0.0117253,4.06055
7060,129417,0.0113879,4.08252
7065,129589,0.0113536,4.09961
7070,129768,0.0112909,4.11758
7075,129964,0.011183,4.13711
7080,130154,0.0109996,4.15615
7085,130355,0.0108348,4.17627
7090,130596,0.0107034,4.20029
7095,130797,0.0106299,4.22051
7100,130994,0.0103043,4.24014
7105,131193,0.00975121,4.26006
7110,131408,0.00965412,4.28154
7115,131711,0.00944328,4.31182
7120,131910,0.00928931,4.33174
7125,132111,0.00898629,4.35186
7130,132312,0.00881467,4.371875
7135,132516,0.008849,4.39238
7140,132719,0.00883821,4.4126
7145,132919,0.00877545,4.43271
7150,133122,0.00882644,4.45293
7155,133324,0.00890097,4.47314
7160,133523,0.00864404,4.49307
7165,133730,0.00840966,4.51377
7170,133936,0.0084783,4.53428
7175,134138,0.00827334,4.55449
7180,134342,0.00807917,4.5749
7185,134636,0.00799876,4.60439
7190,134842,0.00781636,4.6249
7195,135046,0.00765651,4.64541
7200,135248,0.00743978,4.66553
7205,135456,0.00728582,4.68623
7210,135657,0.00723384,4.70645
7215,135862,0.00719461,4.72695
7220,136063,0.00725738,4.74707
7225,136266,0.00722894,4.76738
7230,136463,0.0069318,4.78701
7235,136662,0.00664642,4.80693
7240,136863,0.00666898,4.82705
7245,137066,0.00677195,4.84736
7250,137400,0.00635516,4.88076
7255,137629,0.00613255,4.90361
7260,137837,0.00580207,4.92451
7265,138042,0.00553337,4.94492
7270,138245,0.00525976,4.96523
7275,138470,0.00501361,4.9877
7280,138674,0.00483709,4.9999
7281,138717,0.00483709,5.0