File: tensile_tests/04.06.25_WT_dry_idx0.csv
,Time,Force (Newtons),Distance (millimeters)
0,1,-0.000428076,0.0
2,57,-0.000428076,0.0
4,85,-0.000428076,0.0
6,114,-0.00043396,0.0
8,140,-0.00043396,0.0
10,168,-0.00043396,0.0
12,197,-0.000447689,0.0
14,226,-0.000447689,0.0
16,254,-0.000447689,0.0
18,281,-0.000460438,0.0
20,309,-0.000460438,0.0
22,337,-0.000460438,0.0
24,365,-0.000460438,0.0
26,391,-0.00047809,0.0
28,418,-0.00047809,0.0
30,444,-0.00047809,0.0
32,472,-0.000486916,0.0
34,498,-0.000486916,0.0
36,526,-0.000486916,0.0
38,554,-0.000486916,0.0
40,581,-0.000482013,0.0
42,610,-0.000482013,0.0
44,637,-0.000482013,0.0
46,665,-0.000484955,0.0
48,693,-0.000484955,0.0
50,722,-0.000484955,0.0
52,751,-0.000484955,0.0
54,777,-0.000483974,0.0
56,806,-0.000483974,0.0
58,837,-0.000483974,0.0
60,866,-0.000480051,0.0
62,896,-0.000480051,0.0
64,924,-0.000480051,0.0
66,950,-0.000482013,0.0
68,977,-0.000482013,0.0
70,1006,-0.000482013,0.0
72,1038,-0.00047809,0.0
74,1066,-0.00047809,0.0
76,1092,-0.00047809,0.0
78,1118,-0.00047809,0.0
80,1147,-0.000470245,0.0
82,1173,-0.000470245,0.0
84,1201,-0.000470245,0.0
86,1229,-0.000471225,0.0
88,1255,-0.000471225,0.0
90,1281,-0.000471225,0.0
92,1405,-0.000481032,0.0
94,1441,-0.000491819,0.0
96,1468,-0.000491819,0.0
98,1498,-0.000491819,0.0
100,1526,-0.000506529,0.0
102,1554,-0.000506529,0.0
104,1582,-0.000506529,0.0
106,1611,-0.000513394,0.0
108,1636,-0.000513394,0.0
110,1663,-0.000513394,0.0
112,1687,-0.000513394,0.0
114,1714,-0.000516336,0.0
116,1740,-0.000516336,0.0
118,1766,-0.000516336,0.0
120,1794,-0.000516336,0.0
122,1821,-0.0005232,0.0
124,1848,-0.0005232,0.0
126,1873,-0.0005232,0.0
128,1899,-0.000532026,0.0
130,1925,-0.000532026,0.0
132,1951,-0.000532026,0.0
134,1975,-0.000532026,0.0
136,2001,-0.000532026,0.0
138,2027,-0.000532026,0.0
140,2052,-0.000532026,0.0
142,2079,-0.000532026,0.0
144,2104,-0.000533007,0.0
146,2130,-0.000533007,0.0
148,2156,-0.000533007,0.0
150,2185,-0.000529084,0.0
152,2211,-0.000529084,0.0
154,2239,-0.000529084,0.0
156,2269,-0.000529084,0.0
158,2295,-0.000530065,0.0
160,2324,-0.000530065,0.0
162,2351,-0.000530065,0.0
164,2376,-0.000544775,0.0
166,2404,-0.000544775,0.0
168,2431,-0.000544775,0.0
170,2457,-0.000544775,0.0
172,2484,-0.00055262,0.0
174,2512,-0.00055262,0.0
176,2539,-0.00055262,0.0
178,2565,-0.000557524,0.0
180,2591,-0.000557524,0.0
182,2618,-0.000557524,0.0
184,2645,-0.000557524,0.0
186,2672,-0.000557524,0.0
188,2701,-0.000557524,0.0
190,2731,-0.000557524,0.0
192,2757,-0.000554582,0.0
194,2785,-0.000554582,0.0
196,2812,-0.000554582,0.0
198,2840,-0.000554582,0.0
200,2867,-0.000559485,0.0
202,2895,-0.000559485,0.0
204,2921,-0.000559485,0.0
206,2950,-0.000562427,0.0
208,2976,-0.000562427,0.0
210,3001,-0.000562427,0.0
212,3027,-0.000562427,0.0
214,3055,-0.000569292,0.0
216,3081,-0.000569292,0.0
218,3108,-0.000569292,0.0
220,3135,-0.000573214,0.0
222,3161,-0.000573214,0.0
224,3187,-0.000573214,0.0
226,3215,-0.000573214,0.0
228,3242,-0.000579098,0.0
230,3268,-0.000579098,0.0
232,3295,-0.000579098,0.0
234,3322,-0.000583021,0.0
236,3349,-0.000583021,0.0
238,3376,-0.000583021,0.0
240,3402,-0.000583021,0.0
242,3428,-0.000576156,0.0
244,3454,-0.000576156,0.0
246,3481,-0.000576156,0.0
248,3508,-0.000565369,0.0
250,3534,-0.000565369,0.0
252,3560,-0.000565369,0.0
254,3589,-0.000565369,0.0
256,3613,-0.000556543,0.0
258,3639,-0.000556543,0.0
260,3664,-0.000556543,0.0
262,3692,-0.000556543,0.0
264,3718,-0.000559485,0.0
266,3745,-0.000559485,0.0
268,3771,-0.000559485,0.0
270,3799,-0.000571253,0.0
272,3826,-0.000571253,0.0
274,3854,-0.000571253,0.0
276,3883,-0.000571253,0.0
278,3912,-0.000580079,0.0
280,3943,-0.000580079,0.0
282,3973,-0.000580079,0.0
284,4001,-0.000584982,0.0
286,4028,-0.000584982,0.0
288,4056,-0.000584982,0.0
290,4086,-0.000580079,0.0
292,4111,-0.000580079,0.0
294,4136,-0.000580079,0.0
296,4162,-0.000580079,0.0
298,4187,-0.000577137,0.0
300,4213,-0.000577137,0.0
302,4241,-0.000577137,0.0
304,4268,-0.000577137,0.0
306,4292,-0.000577137,0.0
308,4318,-0.000577137,0.0
310,4344,-0.000577137,0.0
312,4369,-0.000575176,0.0
314,4396,-0.000575176,0.0
316,4422,-0.000575176,0.0
318,4450,-0.000575176,0.0
320,4474,-0.00058106,0.0
322,4499,-0.00058106,0.0
324,4525,-0.00058106,0.0
326,4551,-0.00058106,0.0
328,4578,-0.000587924,0.0
330,4604,-0.000587924,0.0
332,4629,-0.000587924,0.0
334,4655,-0.000601654,0.0
336,4679,-0.000601654,0.0
338,4703,-0.000601654,0.0
340,4730,-0.000601654,0.0
342,4754,-0.000608518,0.0
344,4779,-0.000608518,0.0
346,4804,-0.000608518,0.0
348,4829,-0.000608518,0.0
350,4855,-0.000602634,0.0
352,4880,-0.000602634,0.0
354,4904,-0.000602634,0.0
356,4932,-0.000602634,0.0
358,4960,-0.000600673,0.0
360,4984,-0.000600673,0.0
362,5009,-0.000600673,0.0
364,5038,-0.000599692,0.0
366,5068,-0.000599692,0.0
368,5095,-0.000599692,0.0
370,5122,-0.000599692,0.0
372,5151,-0.000606557,0.0
374,5177,-0.000606557,0.0
376,5204,-0.000606557,0.0
378,5231,-0.000613422,0.0
380,5259,-0.000613422,0.0
382,5288,-0.000613422,0.0
384,5317,-0.000618325,0.0
386,5347,-0.000618325,0.0
388,5380,-0.000618325,0.0
390,5409,-0.000623228,0.0
392,5439,-0.000623228,0.0
394,5467,-0.000623228,0.0
396,5495,-0.000623228,0.0
398,5522,-0.000634996,0.0
400,5550,-0.000634996,0.0
402,5579,-0.000634996,0.0
404,5606,-0.000638919,0.0
406,5633,-0.000638919,0.0
408,5660,-0.000638919,0.0
410,5687,-0.000638919,0.0
412,5715,-0.000634016,0.0
414,5740,-0.000634016,0.0
416,5769,-0.000634016,0.0
418,5799,-0.00062519,0.0
420,5827,-0.00062519,0.0
422,5853,-0.00062519,0.0
424,5879,-0.00062519,0.0
426,5905,-0.000614402,0.0
428,5933,-0.000614402,0.0
430,5960,-0.000614402,0.0
432,5985,-0.000605576,0.0
434,6012,-0.000605576,0.0
436,6039,-0.000605576,0.0
438,6069,-0.000605576,0.0
440,6096,-0.000597731,0.0
442,6124,-0.000597731,0.0
444,6152,-0.000597731,0.0
446,6179,-0.000597731,0.0
448,6205,-0.000597731,0.0
450,6236,-0.000597731,0.0
452,6262,-0.000597731,0.0
454,6287,-0.000600673,0.0
456,6316,-0.000600673,0.0
458,6344,-0.000600673,0.0
460,6371,-0.000608518,0.0
462,6400,-0.000608518,0.0
464,6425,-0.000608518,0.0
466,6451,-0.000608518,0.0
468,6477,-0.000620286,0.0
470,6505,-0.000620286,0.0
472,6534,-0.000620286,0.0
474,6561,-0.000634016,0.0
476,6586,-0.000634016,0.0
478,6613,-0.000634016,0.0
480,6638,-0.000634016,0.0
482,6665,-0.000632054,0.0
484,6695,-0.000632054,0.0
486,6726,-0.000632054,0.0
488,6752,-0.000630093,0.0
490,6780,-0.000630093,0.0
492,6809,-0.000630093,0.0
494,6838,-0.000631074,0.0
496,6865,-0.000631074,0.0
498,6892,-0.000631074,0.0
500,6953,-0.000627151,9.765625e-05
502,7179,-0.000637938,0.00166016
504,7217,-0.000577137,0.00214844
506,7255,-0.000577137,0.00263672
508,7294,-0.000577137,0.00332031
510,7332,-0.00040454,0.00390625
512,7373,-0.00040454,0.0046875
514,7413,0.000118154,0.00556641
516,7458,0.000118154,0.00654297
518,7500,0.00134693,0.00761719
520,7542,0.00134693,0.00869141
522,7592,0.00367699,0.01015625
524,7636,0.00367699,0.0114258
526,7681,0.00367699,0.0128906
528,7721,0.00754277,0.0142578
530,7763,0.00754277,0.0158203
532,7850,0.0139759,0.0191406
534,7897,0.0263225,0.02109375
536,7940,0.0263225,0.0229492
538,7977,0.0457573,0.024707
540,8021,0.0457573,0.0267578
542,8068,0.0700043,0.0291016
544,8113,0.0700043,0.0313477
546,8158,0.0700043,0.0336914
548,8199,0.0969108,0.0359375
550,8247,0.0969108,0.0386719
552,8292,0.122868,0.0413086
554,8336,0.122868,0.0439453
556,8374,0.147357,0.0463867
558,8413,0.147357,0.0488281
560,8457,0.173003,0.0517578
562,8495,0.173003,0.0543945
564,8537,0.173003,0.0572266
566,8629,0.200475,0.0638672
568,8672,0.228242,0.0671875
570,8712,0.228242,0.0702148
572,8755,0.254514,0.0736328
574,8799,0.254514,0.0771484
576,8838,0.277214,0.0803711
578,8893,0.277214,0.0849609
580,8940,0.294824,0.0890625
582,8983,0.294824,0.0928711
584,9024,0.307257,0.0966797
586,9069,0.307257,0.100781
588,9110,0.307257,0.10459
590,9151,0.308212,0.108496
592,9195,0.308212,0.112793
594,9239,0.302436,0.1171875
596,9278,0.302436,0.121094
598,9318,0.298303,0.125195
600,9359,0.298303,0.129199
602,9402,0.297868,0.133398
604,9440,0.297868,0.137305
606,9549,0.310671,0.148145
608,9589,0.333205,0.152148
610,9627,0.333205,0.156055
612,9666,0.333205,0.159961
614,9708,0.357746,0.16416
616,9748,0.357746,0.168164
618,9789,0.38079,0.172266
620,9828,0.38079,0.176172
622,9867,0.38079,0.17998
624,9913,0.402612,0.184668
626,9958,0.402612,0.18916
628,9998,0.423677,0.193066
630,10039,0.423677,0.197168
632,10078,0.444568,0.201074
634,10118,0.444568,0.205176
636,10159,0.468016,0.20918
638,10199,0.468016,0.213184
640,10239,0.468016,0.217187
642,10278,0.490569,0.221094
644,10320,0.490569,0.225293
646,10415,0.511196,0.234766
648,10459,0.529767,0.23916
650,10498,0.529767,0.243164
652,10539,0.547298,0.247168
654,10578,0.547298,0.251074
656,10622,0.547298,0.255469
658,10663,0.565842,0.25957
660,10704,0.565842,0.26377
662,10745,0.584471,0.267773
664,10784,0.584471,0.27168
666,10824,0.602693,0.275684
668,10866,0.602693,0.279785
670,10910,0.602693,0.284277
672,10951,0.621611,0.288379
674,10993,0.621611,0.292578
676,11034,0.641533,0.296777
678,11077,0.641533,0.301074
680,11120,0.664866,0.305273
682,11162,0.664866,0.309473
684,11205,0.693063,0.31377
686,11302,0.721763,0.3234375
688,11345,0.721763,0.327734
690,11388,0.721763,0.332031
692,11429,0.750064,0.33623
694,11473,0.750064,0.340625
696,11514,0.776668,0.344727
698,11557,0.776668,0.348926
700,11596,0.800142,0.35293
702,11640,0.800142,0.357227
704,11679,0.824051,0.361133
706,11721,0.824051,0.36543
708,11763,0.824051,0.369629
710,11809,0.845808,0.374219
712,11848,0.845808,0.378027
714,11889,0.866108,0.382227
716,11929,0.866108,0.386133
718,11972,0.887643,0.39043
720,12010,0.887643,0.394336
722,12051,0.887643,0.3984375
724,12156,0.928833,0.408887
726,12199,0.928833,0.413184
728,12239,0.928833,0.4171875
730,12279,0.949974,0.421191
732,12324,0.949974,0.425684
734,12365,0.968674,0.429785
736,12406,0.968674,0.433887
738,12449,0.988213,0.438184
740,12492,0.988213,0.44248
742,12536,1.00604,0.446875
744,12575,1.00604,0.450879
746,12615,1.00604,0.454785
748,12656,1.02353,0.458789
750,12696,1.02353,0.462891
752,12738,1.04137,0.46709
754,12781,1.04137,0.471387
756,12823,1.05625,0.475586
758,12863,1.05625,0.47959
760,12905,1.05625,0.483789
762,13003,1.07197,0.493555
764,13044,1.0878,0.497656
766,13087,1.0878,0.501953
768,13128,1.10334,0.506055
770,13169,1.10334,0.510156
772,13209,1.12132,0.51416
774,13249,1.12132,0.518164
776,13296,1.1371,0.522852
778,13399,1.15193,0.533203
780,13451,1.15193,0.538379
782,13493,1.16671,0.542578
784,13532,1.16671,0.546484
786,13574,1.16671,0.550684
788,13614,1.1793,0.5546875
790,13657,1.1793,0.558984
792,13699,1.19339,0.563184
794,13742,1.19339,0.567578
796,13787,1.20573,0.571875
798,13832,1.20573,0.576465
800,13928,1.2158,0.586035
802,13972,1.22746,0.590527
804,14014,1.22746,0.594727
806,14060,1.23842,0.599316
808,14103,1.23842,0.603516
810,14145,1.23842,0.607715
812,14191,1.25238,0.612305
814,14232,1.25238,0.616406
816,14273,1.26886,0.620508
818,14311,1.26886,0.624316
820,14352,1.28347,0.628516
822,14396,1.28347,0.63291
824,14441,1.29912,0.637305
826,14481,1.29912,0.641406
828,14525,1.29912,0.645703
830,14566,1.31356,0.649805
832,14610,1.31356,0.654199
834,14651,1.32784,0.658398
836,14697,1.32784,0.662988
838,14740,1.34397,0.667285
840,14780,1.34397,0.671191
842,14873,1.3582,0.680664
844,14915,1.37342,0.684766
846,14957,1.37342,0.688965
848,15002,1.37342,0.693457
850,15045,1.38896,0.697754
852,15088,1.38896,0.702051
854,15129,1.40362,0.706152
856,15171,1.40362,0.710352
858,15212,1.42079,0.714453
860,15256,1.42079,0.718848
862,15296,1.43651,0.722949
864,15341,1.43651,0.727344
866,15381,1.43651,0.731348
868,15422,1.45194,0.735547
870,15465,1.45194,0.739746
872,15510,1.46875,0.744238
874,15555,1.46875,0.74873
876,15594,1.48398,0.752637
878,15636,1.48398,0.756836
880,15677,1.50078,0.7609375
882,15716,1.50078,0.764844
884,15758,1.50078,0.769043
886,15800,1.51693,0.77334
888,15846,1.51693,0.77793
890,15890,1.53146,0.782227
892,15930,1.53146,0.786328
894,15977,1.54784,0.790918
896,16031,1.54784,0.796387
898,16073,1.56333,0.800488
900,16115,1.56333,0.804785
902,16246,1.59864,0.817871
904,16287,1.59864,0.821973
906,16326,1.59864,0.825879
908,16365,1.61481,0.829785
910,16406,1.61481,0.833887
912,16446,1.63215,0.837891
914,16486,1.63215,0.841797
916,16528,1.64849,0.846094
918,16566,1.64849,0.849805
920,16606,1.64849,0.853906
922,16645,1.66418,0.857813
924,16688,1.66418,0.862109
926,16734,1.68175,0.866699
928,16777,1.68175,0.870996
930,16820,1.69753,0.875195
932,16862,1.69753,0.879395
934,16904,1.69753,0.883691
936,16944,1.71442,0.887695
938,16988,1.71442,0.891992
940,17032,1.73239,0.896387
942,17077,1.73239,0.900977
944,17119,1.74943,0.905176
946,17161,1.74943,0.909277
948,17200,1.76882,0.913184
950,17244,1.76882,0.917676
952,17289,1.78669,0.922168
954,17328,1.78669,0.926074
956,17374,1.78669,0.930664
958,17417,1.8034,0.934961
960,17459,1.8034,0.93916
962,17498,1.8212,0.943066
964,17541,1.8212,0.947363
966,17647,1.83736,0.958008
968,17692,1.85548,0.9625
970,17735,1.85548,0.966699
972,17779,1.874,0.971191
974,17820,1.874,0.975195
976,17861,1.8909,0.979297
978,17905,1.8909,0.983789
980,17948,1.8909,0.988086
982,17994,1.90984,0.992676
984,18038,1.90984,0.99707
986,18080,1.92775,1.00127
988,18124,1.92775,1.00566
990,18167,1.94633,1.00986
992,18210,1.94633,1.01426
994,18256,1.96669,1.01885
996,18300,1.96669,1.02324
998,18346,1.9845,1.02783
1000,18389,1.9845,1.03213
1002,18430,2.00326,1.03633
1004,18474,2.00326,1.040625
1006,18518,2.00326,1.04502
1008,18563,2.02179,1.04951
1010,18609,2.02179,1.0541
1012,18712,2.05949,1.06445
1014,18755,2.05949,1.06875
1016,18799,2.05949,1.07314
1018,18845,2.07715,1.07773
1020,18894,2.07715,1.08271
1022,18938,2.09457,1.08711
1024,18983,2.09457,1.0915
1026,19027,2.11062,1.0959
1028,19070,2.11062,1.10029
1030,19112,2.12124,1.10439
1032,19155,2.12124,1.10869
1034,19197,2.13521,1.11299
1036,19241,2.13521,1.11729
1038,19283,2.15019,1.12158
1040,19327,2.15019,1.12588
1042,19368,2.15019,1.13008
1044,19414,2.16695,1.13467
1046,19456,2.16695,1.13887
1048,19499,2.19021,1.14316
1050,19544,2.19021,1.14756
1052,19586,2.21193,1.15186
1054,19629,2.21193,1.15615
1056,19673,2.23395,1.16055
1058,19716,2.23395,1.16484
1060,19761,2.25615,1.16934
1062,19806,2.25615,1.17383
1064,19848,2.25615,1.17803
1066,19892,2.27608,1.18242
1068,19990,2.29799,1.19219
1070,20032,2.29799,1.19648
1072,20079,2.31954,1.20117
1074,20121,2.31954,1.20527
1076,20166,2.34189,1.20986
1078,20210,2.34189,1.21426
1080,20255,2.3664,1.21875
1082,20301,2.3664,1.22334
1084,20344,2.38787,1.22764
1086,20389,2.38787,1.23203
1088,20432,2.40951,1.23643
1090,20478,2.40951,1.24102
1092,20525,2.43075,1.2457
1094,20570,2.43075,1.2502
1096,20615,2.45087,1.25469
1098,20660,2.45087,1.25928
1100,20704,2.45087,1.26367
1102,20746,2.4738,1.26787
1104,20790,2.4738,1.27227
1106,20835,2.49566,1.27666
1108,20879,2.49566,1.28115
1110,20922,2.51771,1.28545
1112,20967,2.51771,1.29004
1114,21012,2.54142,1.29443
1116,21054,2.54142,1.29863
1118,21099,2.56374,1.303125
1120,21144,2.56374,1.30762
1122,21188,2.58873,1.31201
1124,21233,2.58873,1.3165
1126,21280,2.61345,1.32119
1128,21324,2.61345,1.32568
1130,21429,2.63622,1.33613
1132,21471,2.66073,1.34033
1134,21513,2.66073,1.34453
1136,21558,2.66073,1.34902
1138,21600,2.68341,1.35322
1140,21645,2.68341,1.35771
1142,21691,2.70701,1.3624
1144,21739,2.70701,1.36709
1146,21785,2.73187,1.37168
1148,21831,2.73187,1.37637
1150,21876,2.75457,1.38086
1152,21920,2.75457,1.38525
1154,21964,2.7794,1.38965
1156,22009,2.7794,1.39414
1158,22053,2.80402,1.39854
1160,22097,2.80402,1.40293
1162,22141,2.82885,1.40732
1164,22184,2.82885,1.41162
1166,22228,2.85619,1.41602
1168,22274,2.85619,1.42061
1170,22318,2.85619,1.425
1172,22364,2.88089,1.42969
1174,22411,2.88089,1.43428
1176,22458,2.90588,1.43906
1178,22503,2.90588,1.44346
1180,22547,2.93153,1.44785
1182,22593,2.93153,1.45254
1184,22641,2.95602,1.45732
1186,22689,2.95602,1.46211
1188,22732,2.98262,1.46641
1190,22778,2.98262,1.471
1192,22825,3.00778,1.47568
1194,22868,3.00778,1.47998
1196,22914,3.03206,1.48467
1198,22961,3.03206,1.48936
1200,23006,3.05775,1.49385
1202,23049,3.05775,1.49814
1204,23094,3.0825,1.50264
1206,23142,3.0825,1.50742
1208,23187,3.10962,1.51191
1210,23233,3.10962,1.5165
1212,23279,3.13657,1.52119
1214,23325,3.13657,1.52568
1216,23375,3.16113,1.53066
1218,23419,3.16113,1.53516
1220,23463,3.18665,1.53945
1222,23510,3.18665,1.54414
1224,23557,3.20982,1.54883
1226,23603,3.20982,1.55352
1228,23648,3.20982,1.55811
1230,23696,3.23333,1.56279
1232,23742,3.23333,1.56748
1234,23790,3.25842,1.57227
1236,23840,3.25842,1.57715
1238,23887,3.28131,1.58193
1240,23933,3.28131,1.58643
1242,23981,3.30664,1.59131
1244,24027,3.30664,1.5959
1246,24077,3.33327,1.60088
1248,24125,3.33327,1.60566
1250,24168,3.3599,1.60996
1252,24215,3.3599,1.61465
1254,24262,3.38965,1.61943
1256,24306,3.38965,1.62373
1258,24349,3.41729,1.628125
1260,24393,3.41729,1.63252
1262,24440,3.44395,1.63721
1264,24487,3.44395,1.64189
1266,24533,3.47115,1.64648
1268,24577,3.47115,1.65098
1270,24625,3.49663,1.65576
1272,24672,3.49663,1.66045
1274,24719,3.52406,1.66504
1276,24765,3.52406,1.66973
1278,24815,3.55037,1.67471
1280,24860,3.55037,1.6792
1282,24904,3.5754,1.68359
1284,24954,3.5754,1.68857
1286,25002,3.60211,1.69346
1288,25047,3.60211,1.69785
1290,25092,3.6273,1.70234
1292,25136,3.6273,1.70684
1294,25182,3.65446,1.71133
1296,25230,3.65446,1.71621
1298,25279,3.68165,1.72109
1300,25325,3.68165,1.72568
1302,25370,3.70545,1.73018
1304,25413,3.70545,1.73447
1306,25458,3.72993,1.73896
1308,25499,3.72993,1.74316
1310,25540,3.72993,1.74727
1312,25579,3.73734,1.75107
1314,25622,3.73734,1.75537
1316,25661,3.45896,1.75928
1318,25702,3.45896,1.76348
1320,25745,2.71213,1.76768
1322,25783,2.71213,1.77148
1324,25823,2.71213,1.77549
1326,25860,1.86112,1.7793
1328,25899,1.86112,1.7832
1330,25939,1.00854,1.78711
1332,25981,1.00854,1.79131
1334,26024,1.00854,1.79561
1336,26076,0.429288,1.80078
1338,26120,0.429288,1.80527
1340,26161,0.307941,1.80928
1342,26203,0.307941,1.81357
1344,26245,0.279634,1.81768
1346,26286,0.279634,1.821875
1348,26329,0.259265,1.82607
1350,26370,0.259265,1.83027
1352,26459,0.24229,1.83916
1354,26501,0.24229,1.84336
1356,26544,0.228892,1.84766
1358,26584,0.228892,1.85166
1360,26627,0.218221,1.85596
1362,26670,0.218221,1.86016
1364,26711,0.209443,1.86436
1366,26753,0.209443,1.86855
1368,26795,0.202665,1.87275
1370,26836,0.202665,1.87676
1372,26878,0.202665,1.88105
1374,26924,0.197867,1.88564
1376,26966,0.197867,1.88975
1378,27008,0.193713,1.89404
1380,27051,0.193713,1.89834
1382,27098,0.189525,1.90303
1384,27145,0.189525,1.90771
1386,27192,0.185479,1.9124
1388,27237,0.185479,1.91689
1390,27347,0.181136,1.92793
1392,27397,0.177366,1.93291
1394,27448,0.177366,1.93799
1396,27495,0.17423,1.94277
1398,27542,0.17423,1.94746
1400,27593,0.17114,1.95254
1402,27642,0.17114,1.95742
1404,27693,0.167933,1.9625
1406,27743,0.164429,1.96748
1408,27791,0.164429,1.97236
1410,27842,0.160883,1.97744
1412,27893,0.160883,1.98252
1414,27944,0.157363,1.9876
1416,27993,0.157363,1.99248
1418,28044,0.153997,1.99766
1420,28094,0.153997,2.00264
1422,28142,0.150748,2.00742
1424,28191,0.150748,2.0123
1426,28289,0.147463,2.02217
1428,28346,0.1442,2.02783
1430,28396,0.1442,2.03281
1432,28447,0.140937,2.03789
1434,28495,0.140937,2.04277
1436,28546,0.137687,2.04775
1438,28597,0.134505,2.05283
1440,28647,0.134505,2.05791
1442,28694,0.131274,2.0626
1444,28743,0.131274,2.06758
1446,28793,0.128151,2.07246
1448,28843,0.128151,2.07744
1450,28933,0.125091,2.08643
1452,28980,0.122124,2.09121
1454,29030,0.122124,2.09619
1456,29082,0.119374,2.10137
1458,29130,0.119374,2.10615
1460,29179,0.116847,2.11113
1462,29230,0.116847,2.11611
1464,29279,0.114683,2.12109
1466,29380,0.112714,2.13125
1468,29431,0.112714,2.13623
1470,29481,0.110841,2.14131
1472,29529,0.110841,2.14609
1474,29579,0.109061,2.15117
1476,29628,0.109061,2.15596
1478,29675,0.10726,2.16074
1480,29726,0.10726,2.16572
1482,29776,0.105638,2.1708
1484,29825,0.105638,2.17568
1486,29875,0.104347,2.18076
1488,29923,0.103313,2.18555
1490,29971,0.103313,2.19033
1492,30020,0.102551,2.19521
1494,30068,0.102551,2.2
1496,30121,0.102037,2.20537
1498,30172,0.102037,2.21035
1500,30217,0.101641,2.21484
1502,30265,0.101641,2.21963
1504,30317,0.10135,2.2249
1506,30404,0.10116,2.23359
1508,30454,0.10116,2.23857
1510,30504,0.10102,2.24365
1512,30553,0.10102,2.24844
1514,30601,0.100914,2.25332
1516,30649,0.100914,2.25811
1518,30697,0.100843,2.26289
1520,30747,0.100843,2.26787
1522,30796,0.100781,2.27275
1524,30847,0.100781,2.27783
1526,30896,0.100722,2.28281
1528,30948,0.100722,2.28799
1530,30996,0.100678,2.29277
1532,31047,0.100678,2.29775
1534,31096,0.100646,2.30283
1536,31144,0.100646,2.30762
1538,31192,0.100616,2.3123
1540,31240,0.100616,2.31709
1542,31290,0.100596,2.32227
1544,31351,0.100586,2.32734
1546,31445,0.100584,2.3377
1548,31495,0.100584,2.34268
1550,31544,0.100581,2.34756
1552,31592,0.100581,2.35234
1554,31642,0.100566,2.35742
1556,31694,0.100566,2.3626
1558,31743,0.100532,2.36748
1560,31793,0.100532,2.37256
1562,31841,0.100491,2.37734
1564,31894,0.100491,2.38252
1566,31944,0.100456,2.3876
1568,31991,0.100456,2.39229
1570,32044,0.100425,2.39756
1572,32093,0.100425,2.40244
1574,32143,0.100407,2.40752
1576,32194,0.100407,2.4125
1578,32244,0.100396,2.41758
1580,32294,0.100396,2.42256
1582,32343,0.100382,2.42754
1584,32397,0.100376,2.43281
1586,32498,0.100373,2.44307
1588,32546,0.100373,2.44775
1590,32596,0.100367,2.45283
1592,32644,0.100367,2.45752
1594,32692,0.10037,2.4623
1596,32741,0.10037,2.46729
1598,32792,0.100371,2.47236
1600,32844,0.100371,2.47764
1602,32898,0.100371,2.48291
1604,32947,0.100371,2.48779
1606,32996,0.100378,2.49277
1608,33047,0.100378,2.49785
1610,33097,0.10038,2.50283
1612,33215,0.100372,2.51465
1614,33265,0.100356,2.51973
1616,33321,0.100356,2.5252
1618,33369,0.10033,2.53008
1620,33418,0.10033,2.53496
1622,33515,0.100305,2.54473
1624,33564,0.100285,2.54961
1626,33613,0.100285,2.55449
1628,33664,0.100276,2.55947
1630,33713,0.100276,2.56445
1632,33765,0.100272,2.56963
1634,33816,0.100272,2.5748
1636,33868,0.10027,2.57998
1638,33919,0.100263,2.58506
1640,33967,0.100263,2.58984
1642,34017,0.100249,2.59492
1644,34070,0.100249,2.6002
1646,34119,0.100239,2.60508
1648,34171,0.100239,2.61025
1650,34221,0.100231,2.61523
1652,34273,0.100231,2.62041
1654,34322,0.100244,2.62529
1656,34372,0.100244,2.63037
1658,34423,0.100261,2.63545
1660,34499,0.100272,2.64307
1662,34611,0.100283,2.6543
1664,34664,0.100283,2.65947
1666,34713,0.100278,2.66445
1668,34761,0.100278,2.66924
1670,34814,0.100271,2.67451
1672,34864,0.100264,2.67959
1674,34913,0.100264,2.68447
1676,34966,0.100256,2.68975
1678,35016,0.100256,2.69473
1680,35065,0.100252,2.69961
1682,35114,0.100252,2.70459
1684,35164,0.100243,2.70947
1686,35215,0.100243,2.71465
1688,35264,0.100229,2.71953
1690,35314,0.100229,2.72451
1692,35364,0.100207,2.72959
1694,35414,0.100207,2.73457
1696,35467,0.100185,2.73984
1698,35518,0.100185,2.74492
1700,35618,0.100172,2.75498
1702,35670,0.100172,2.76016
1704,35720,0.10018,2.76514
1706,35769,0.10018,2.77002
1708,35819,0.100189,2.7751
1710,35876,0.100189,2.78076
1712,35929,0.100192,2.78594
1714,35980,0.100192,2.79111
1716,36030,0.100185,2.79619
1718,36080,0.100185,2.80117
1720,36131,0.100168,2.80625
1722,36183,0.100168,2.81143
1724,36232,0.10014,2.81631
1726,36281,0.10014,2.82129
1728,36330,0.100126,2.82617
1730,36380,0.100126,2.83115
1732,36431,0.100116,2.83623
1734,36481,0.100124,2.84121
1736,36530,0.100124,2.84609
1738,36628,0.100141,2.85596
1740,36682,0.100145,2.86133
1742,36733,0.100145,2.86641
1744,36781,0.100155,2.87119
1746,36832,0.100155,2.87637
1748,36883,0.100159,2.88145
1750,36936,0.100159,2.88672
1752,36987,0.100163,2.89189
1754,37036,0.100163,2.89678
1756,37090,0.100175,2.90215
1758,37143,0.100175,2.90742
1760,37195,0.100173,2.9126
1762,37247,0.100176,2.91787
1764,37297,0.100176,2.92285
1766,37348,0.10018,2.92793
1768,37401,0.10018,2.9332
1770,37450,0.100184,2.93818
1772,37503,0.100184,2.94346
1774,37554,0.100188,2.94854
1776,37608,0.100188,2.95391
1778,37712,0.100181,2.96436
1780,37764,0.100177,2.96963
1782,37815,0.100171,2.97461
1784,37866,0.100171,2.97979
1786,37919,0.100167,2.98506
1788,37972,0.100167,2.99033
1790,38022,0.100167,2.99541
1792,38074,0.100167,3.00059
1794,38126,0.100163,3.00576
1796,38177,0.100163,3.01084
1798,38230,0.100155,3.01611
1800,38282,0.100155,3.02139
1802,38332,0.10015,3.02637
1804,38385,0.100151,3.03164
1806,38438,0.100151,3.03691
1808,38490,0.100155,3.04219
1810,38543,0.100155,3.04746
1812,38595,0.100165,3.05264
1814,38645,0.100165,3.05771
1816,38743,0.100171,3.06748
1818,38793,0.100164,3.07246
1820,38844,0.100164,3.07754
1822,38898,0.100163,3.08291
1824,38950,0.100163,3.08818
1826,39002,0.100163,3.09336
1828,39055,0.10017,3.09863
1830,39107,0.10017,3.10381
1832,39160,0.100186,3.10918
1834,39213,0.100186,3.11445
1836,39265,0.100192,3.11963
1838,39319,0.100192,3.125
1840,39372,0.100193,3.13037
1842,39424,0.100193,3.13555
1844,39511,0.10019,3.14424
1846,39569,0.100171,3.15
1848,39619,0.100144,3.15508
1850,39675,0.100144,3.16064
1852,39727,0.100124,3.16582
1854,39827,0.100118,3.17578
1856,39893,0.100118,3.18242
1858,39946,0.10014,3.1877
1860,39999,0.100166,3.19297
1862,40051,0.100166,3.19824
1864,40104,0.100182,3.20352
1866,40157,0.100182,3.20889
1868,40206,0.100192,3.21377
1870,40255,0.100192,3.21865
1872,40308,0.100194,3.22393
1874,40361,0.100194,3.2293
1876,40412,0.100191,3.234375
1878,40463,0.100191,3.23945
1880,40513,0.10019,3.24434
1882,40564,0.10019,3.24951
1884,40619,0.100191,3.25498
1886,40674,0.10019,3.26055
1888,40727,0.10019,3.26582
1890,40779,0.100199,3.271
1892,40888,0.100209,3.28193
1894,40942,0.100209,3.2873
1896,40992,0.100224,3.29229
1898,41046,0.100238,3.29766
1900,41098,0.100238,3.30293
1902,41152,0.100254,3.3084
1904,41204,0.100254,3.31357
1906,41254,0.100274,3.31855
1908,41306,0.100274,3.32373
1910,41360,0.100279,3.3292
1912,41412,0.100279,3.334375
1914,41462,0.100276,3.33936
1916,41516,0.100273,3.34473
1918,41567,0.100273,3.3498
1920,41619,0.100268,3.35508
1922,41671,0.100268,3.36025
1924,41723,0.100265,3.36543
1926,41778,0.100265,3.371
1928,41832,0.100258,3.37637
1930,41887,0.100258,3.38184
1932,41989,0.100259,3.39199
1934,42044,0.10026,3.39756
1936,42098,0.100259,3.40293
1938,42151,0.100259,3.4083
1940,42206,0.100267,3.41377
1942,42258,0.100267,3.41885
1944,42308,0.100257,3.42393
1946,42362,0.100257,3.4293
1948,42416,0.100256,3.43477
1950,42471,0.100265,3.44023
1952,42527,0.100265,3.4458
1954,42579,0.100271,3.45107
1956,42631,0.100271,3.45625
1958,42684,0.10028,3.46152
1960,42738,0.10028,3.46689
1962,42791,0.100278,3.47227
1964,42843,0.100278,3.47744
1966,42898,0.100274,3.48291
1968,42953,0.100277,3.48848
1970,43067,0.100282,3.4998
1972,43122,0.100282,3.50527
1974,43180,0.100283,3.51104
1976,43233,0.100272,3.5165
1978,43290,0.100272,3.52207
1980,43346,0.100251,3.52764
1982,43398,0.100251,3.53291
1984,43450,0.100236,3.53818
1986,43507,0.100236,3.54385
1988,43559,0.100231,3.54902
1990,43611,0.10024,3.5543
1992,43665,0.10024,3.55957
1994,43719,0.100257,3.56504
1996,43776,0.100257,3.5707
1998,43830,0.100268,3.57617
2000,43883,0.100268,3.58135
2002,43934,0.100265,3.58652
2004,43988,0.100259,3.59189
2006,44041,0.100259,3.59727
2008,44148,0.10026,3.60791
2010,44210,0.100264,3.61406
2012,44265,0.100264,3.61963
2014,44320,0.100286,3.6251
2016,44374,0.100306,3.63047
2018,44428,0.100306,3.63594
2020,44484,0.10031,3.6415
2022,44536,0.10031,3.64678
2024,44588,0.100313,3.65186
2026,44644,0.100313,3.65752
2028,44699,0.100315,3.66299
2030,44753,0.100316,3.66846
2032,44805,0.100316,3.67363
2034,44860,0.10032,3.6791
2036,44913,0.10032,3.68437
2038,44967,0.10033,3.68984
2040,45023,0.10033,3.69541
2042,45076,0.100327,3.70068
2044,45130,0.100323,3.70605
2046,45238,0.100318,3.71689
2048,45290,0.100318,3.72207
2050,45347,0.100309,3.72773
2052,45400,0.100309,3.73311
2054,45455,0.10031,3.73867
2056,45511,0.100313,3.74424
2058,45567,0.100313,3.7498
2060,45619,0.100322,3.75508
2062,45675,0.100322,3.76064
2064,45727,0.100329,3.76582
2066,45786,0.100329,3.77168
2068,45840,0.100334,3.77715
2070,45896,0.100348,3.78271
2072,45953,0.100348,3.78838
2074,46011,0.10036,3.79424
2076,46066,0.10036,3.79971
2078,46123,0.100363,3.80547
2080,46180,0.100369,3.81104
2082,46232,0.100369,3.81631
2084,46339,0.100363,3.82695
2086,46394,0.100352,3.83252
2088,46447,0.100352,3.83779
2090,46504,0.10034,3.84355
2092,46555,0.100335,3.84863
2094,46609,0.100335,3.854
2096,46663,0.10034,3.859375
2098,46716,0.10034,3.86465
2100,46770,0.100359,3.87012
2102,46827,0.100359,3.87578
2104,46880,0.100387,3.88115
2106,46933,0.100398,3.88643
2108,46988,0.100398,3.89189
2110,47038,0.100406,3.896875
2112,47090,0.100406,3.90215
2114,47144,0.1004,3.90752
2116,47197,0.1004,3.9127
2118,47250,0.100392,3.91807
2120,47305,0.100392,3.92363
2122,47358,0.100392,3.929
2124,47458,0.100394,3.93896
2126,47511,0.1004,3.94424
2128,47563,0.1004,3.94941
2130,47617,0.100406,3.95479
2132,47674,0.100406,3.96055
2134,47728,0.100412,3.96592
2136,47782,0.100412,3.97139
2138,47834,0.100412,3.97656
2140,47889,0.100417,3.98203
2142,47943,0.100417,3.9875
2144,47997,0.100415,3.99287
2146,48053,0.100415,3.99844
2148,48108,0.100417,4.00391
2150,48158,0.100417,4.00898
2152,48216,0.100422,4.01465
2154,48270,0.100422,4.02012
2156,48323,0.100422,4.02539
2158,48381,0.100427,4.03115
2160,48437,0.100427,4.03672
2162,48575,0.100437,4.05059
2164,48634,0.100437,4.05654
2166,48692,0.100448,4.0623
2168,48749,0.100456,4.06797
2170,48804,0.100456,4.07354
2172,48859,0.100463,4.079
2174,48914,0.100463,4.08447
2176,48971,0.100464,4.09014
2178,49028,0.100444,4.0959
2180,49092,0.100444,4.10234
2182,49150,0.100401,4.10811
2184,49205,0.100401,4.11357
2186,49267,0.100352,4.11982
2188,49320,0.10031,4.1251
2190,49380,0.10031,4.13105
2192,49437,0.100297,4.13682
2194,49557,0.100317,4.14873
2196,49630,0.100335,4.15615
2198,49687,0.100335,4.16182
2200,49745,0.100358,4.16758
2202,49800,0.100374,4.17305
2204,49854,0.100374,4.17842
2206,49914,0.100391,4.18447
2208,49969,0.100391,4.18994
2210,50024,0.100417,4.19551
2212,50086,0.100437,4.20166
2214,50147,0.100437,4.20771
2216,50200,0.100447,4.21309
2218,50253,0.100447,4.21836
2220,50310,0.100445,4.22402
2222,50364,0.100446,4.22949
2224,50469,0.100451,4.23994
2226,50527,0.100451,4.2458
2228,50580,0.100459,4.25107
2230,50632,0.100459,4.25635
2232,50700,0.100469,4.26299
2234,50806,0.100472,4.27373
2236,50862,0.100466,4.2793
2238,50914,0.100466,4.28447
2240,50968,0.10047,4.28984
2242,51020,0.100464,4.29512
2244,51078,0.100464,4.30088
2246,51131,0.100458,4.30625
2248,51187,0.100458,4.31172
2250,51241,0.10046,4.31719
2252,51297,0.10046,4.32275
2254,51350,0.100455,4.32803
2256,51411,0.10046,4.33428
2258,51467,0.10046,4.33975
2260,51525,0.100465,4.34561
2262,51579,0.100465,4.35098
2264,51640,0.100467,4.35713
2266,51692,0.100475,4.3623
2268,51795,0.100484,4.37256
2270,51851,0.100484,4.37822
2272,51908,0.100487,4.38389
2274,51963,0.100487,4.38945
2276,52021,0.100493,4.39521
2278,52078,0.100503,4.40088
2280,52134,0.100503,4.40645
2282,52189,0.100502,4.41201
2284,52253,0.100502,4.41836
2286,52310,0.100509,4.42402
2288,52364,0.10051,4.42949
2290,52419,0.10051,4.43496
2292,52480,0.100506,4.44102
2294,52534,0.100506,4.44639
2296,52594,0.100514,4.45244
2298,52651,0.100515,4.4582
2300,52707,0.100515,4.46377
2302,52759,0.100514,4.46895
2304,52814,0.100514,4.47451
2306,52924,0.100512,4.48545
2308,52996,0.100512,4.49268
2310,53052,0.100518,4.49824
2312,53112,0.100526,4.5042
2314,53168,0.100526,4.50986
2316,53230,0.100524,4.51611
2318,53284,0.100524,4.52148
2320,53345,0.100521,4.52754
2322,53399,0.100517,4.53301
2324,53464,0.100517,4.53945
2326,53518,0.100517,4.54492
2328,53578,0.100517,4.55088
2330,53634,0.100526,4.55645
2332,53688,0.100528,4.56182
2334,53746,0.100528,4.56768
2336,53805,0.100536,4.57354
2338,53863,0.100536,4.57939
2340,53924,0.100544,4.58545
2342,53982,0.100555,4.59092
2344,54088,0.100567,4.60186
2346,54150,0.100567,4.60811
2348,54274,0.100579,4.62051
2350,54334,0.100579,4.62646
2352,54386,0.100578,4.63174
2354,54438,0.100578,4.63682
2356,54487,0.100572,4.6418
2358,54537,0.100566,4.64678
2360,54586,0.100566,4.65166
2362,54638,0.100563,4.65684
2364,54690,0.100563,4.66201
2366,54745,0.100558,4.66758
2368,54798,0.100558,4.67285
2370,54850,0.100561,4.67803
2372,54908,0.100561,4.68389
2374,54962,0.100557,4.68926
2376,55017,0.100555,4.69473
2378,55080,0.100555,4.70107
2380,55133,0.100548,4.70635
2382,55185,0.100548,4.71152
2384,55290,0.100547,4.72197
2386,55345,0.100553,4.72754
2388,55396,0.100557,4.73262
2390,55447,0.100557,4.73779
2392,55499,0.100564,4.74297
2394,55551,0.100564,4.74814
2396,55602,0.100565,4.75322
2398,55655,0.100565,4.75859
2400,55710,0.100564,4.76406
2402,55766,0.100564,4.76963
2404,55826,0.100571,4.77568
2406,55885,0.100579,4.78154
2408,56002,0.100594,4.79316
2410,56107,0.100611,4.80381
2412,56216,0.100615,4.81465
2414,56350,0.100598,4.82803
2416,56421,0.100598,4.83506
2418,56518,0.100589,4.84482
2420,56576,0.100591,4.85068
2422,56631,0.100598,4.85615
2424,56686,0.100598,4.86162
2426,56742,0.100605,4.86719
2428,56802,0.100605,4.87324
2430,56860,0.100607,4.8791
2432,56920,0.10061,4.88496
2434,56978,0.10061,4.89082
2436,57050,0.100611,4.89805
2438,57117,0.100623,4.90479
2440,57182,0.100623,4.91133
2442,57236,0.100632,4.9167
2444,57292,0.100638,4.92227
2446,57347,0.100638,4.92773
2448,57406,0.100648,4.93369
2450,57465,0.100648,4.93955
2452,57519,0.100639,4.94492
2454,57576,0.100627,4.95068
2456,57634,0.100627,4.95645
2458,57696,0.100624,4.9626
2460,57758,0.100624,4.96875
2462,57815,0.100627,4.97451
2464,57869,0.100637,4.97998
2466,57927,0.100637,4.98574
2468,57982,0.100651,4.99121
2470,58038,0.100651,4.9957
2472,58095,0.100657,4.99863
2474,58150,0.100668,4.9999
2475,58179,0.100668,5.0