File: tensile_tests/04.03.25_WT_idx1_already_stressed.csv
,Time,Force (Newtons),Distance (millimeters)
0,3,0.000101611,0.0
2,35,0.000101611,0.0
4,62,0.000140837,0.0
6,89,0.000140837,0.0
8,118,0.000140837,0.0
10,148,0.000140837,0.0
12,178,9.08233e-05,0.0
14,205,9.08233e-05,0.0
16,235,9.08233e-05,0.0
18,264,1.33508e-05,0.0
20,291,1.33508e-05,0.0
22,320,1.33508e-05,0.0
24,351,-1.41078e-05,0.0
26,383,-1.41078e-05,0.0
28,410,-1.41078e-05,0.0
30,437,-1.41078e-05,0.0
32,463,-0.000113155,0.0
34,490,-0.000113155,0.0
36,517,-0.000113155,0.0
38,544,-9.15804e-05,0.0
40,572,-9.15804e-05,0.0
42,601,-9.15804e-05,0.0
44,629,-9.15804e-05,0.0
46,658,-0.000113155,0.0
48,689,-0.000113155,0.0
50,718,-0.000113155,0.0
52,747,-0.000190628,0.0
54,776,-0.000190628,0.0
56,803,-0.000190628,0.0
58,831,-0.000196512,0.0
60,861,-0.000196512,0.0
62,889,-0.000196512,0.0
64,917,-0.000196512,0.0
66,944,-0.000196512,0.0
68,970,-0.000196512,0.0
70,997,-0.000196512,0.0
72,1027,-0.000213183,0.0
74,1053,-0.000213183,0.0
76,1081,-0.000213183,0.0
78,1108,-0.00022397,0.0
80,1135,-0.00022397,0.0
82,1163,-0.00022397,0.0
84,1190,-0.00022397,0.0
86,1220,-0.0002681,0.0
88,1250,-0.0002681,0.0
90,1279,-0.0002681,0.0
92,1309,-0.000251429,0.0
94,1335,-0.000251429,0.0
96,1365,-0.000251429,0.0
98,1394,-0.000218086,0.0
100,1423,-0.000218086,0.0
102,1450,-0.000218086,0.0
104,1477,-0.000218086,0.0
106,1504,-0.000173956,0.0
108,1531,-0.000173956,0.0
110,1563,-0.000173956,0.0
112,1590,-0.000157285,0.0
114,1617,-0.000157285,0.0
116,1644,-0.000157285,0.0
118,1672,-0.000157285,0.0
120,1702,-0.000245545,0.0
122,1729,-0.000245545,0.0
124,1756,-0.000245545,0.0
126,1782,-0.000339689,0.0
128,1809,-0.000339689,0.0
130,1930,-0.000427948,0.0
132,1959,-0.000427948,0.0
134,1985,-0.000433832,0.0
136,2012,-0.000433832,0.0
138,2041,-0.000433832,0.0
140,2065,-0.000450504,0.0
142,2092,-0.000450504,0.0
144,2119,-0.000450504,0.0
146,2144,-0.000450504,0.0
148,2172,-0.000422064,0.0
150,2200,-0.000422064,0.0
152,2230,-0.000422064,0.0
154,2260,-0.000278887,0.0
156,2287,-0.000278887,0.0
158,2319,-0.000278887,0.0
160,2352,-0.000157285,0.0
162,2382,-0.000157285,0.0
164,2409,-0.000157285,0.0
166,2437,-0.000157285,0.0
168,2465,-7.49091e-05,0.0
170,2496,-7.49091e-05,0.0
172,2527,-7.49091e-05,0.0
174,2554,-1.99918e-05,0.0
176,2583,-1.99918e-05,0.0
178,2610,-1.99918e-05,0.0
180,2637,-4.74505e-05,0.0
182,2663,-4.74505e-05,0.0
184,2689,-4.74505e-05,0.0
186,2716,-4.74505e-05,0.0
188,2744,-7.49091e-05,0.0
190,2771,-7.49091e-05,0.0
192,2799,-7.49091e-05,0.0
194,2826,-7.49091e-05,0.0
196,2853,-7.49091e-05,0.0
198,2880,-7.49091e-05,0.0
200,2907,-7.49091e-05,0.0
202,2934,-9.64837e-05,0.0
204,2960,-9.64837e-05,0.0
206,2987,-9.64837e-05,0.0
208,3013,-0.000108252,0.0
210,3042,-0.000108252,0.0
212,3070,-0.000108252,0.0
214,3097,-0.000108252,0.0
216,3125,-0.000173956,0.0
218,3153,-0.000173956,0.0
220,3180,-0.000173956,0.0
222,3206,-0.00017984,0.0
224,3232,-0.00017984,0.0
226,3258,-0.00017984,0.0
228,3287,-0.00017984,0.0
230,3317,-0.000184744,0.0
232,3345,-0.000184744,0.0
234,3374,-0.000184744,0.0
236,3401,-0.000240641,0.0
238,3427,-0.000240641,0.0
240,3456,-0.000240641,0.0
242,3482,-0.000240641,0.0
244,3509,-0.000190628,0.0
246,3537,-0.000190628,0.0
248,3563,-0.000190628,0.0
250,3591,-0.000108252,0.0
252,3619,-0.000108252,0.0
254,3649,-0.000108252,0.0
256,3680,1.33508e-05,0.0
258,3711,1.33508e-05,0.0
260,3739,1.33508e-05,0.0
262,3766,1.33508e-05,0.0
264,3794,9.08233e-05,0.0
266,3821,9.08233e-05,0.0
268,3847,9.08233e-05,0.0
270,3873,0.000101611,0.0
272,3902,0.000101611,0.0
274,3930,0.000101611,0.0
276,3957,0.000101611,0.0
278,3984,7.4152e-05,0.0
280,4013,7.4152e-05,0.0
282,4039,7.4152e-05,0.0
284,4067,6.8268e-05,0.0
286,4095,6.8268e-05,0.0
288,4121,6.8268e-05,0.0
290,4149,6.8268e-05,0.0
292,4176,0.000113379,0.0
294,4203,0.000113379,0.0
296,4230,0.000113379,0.0
298,4259,0.000179083,0.0
300,4286,0.000179083,0.0
302,4315,0.000179083,0.0
304,4342,0.000179083,0.0
306,4369,0.000162412,0.0
308,4399,0.000162412,0.0
310,4427,0.000162412,0.0
312,4455,5.74807e-05,0.0
314,4485,5.74807e-05,0.0
316,4515,5.74807e-05,0.0
318,4547,3.59061e-05,0.0
320,4575,3.59061e-05,0.0
322,4603,3.59061e-05,0.0
324,4634,-7.98124e-05,0.0
326,4660,-7.98124e-05,0.0
328,4686,-7.98124e-05,0.0
330,4717,-7.98124e-05,0.0
332,4747,-0.000129826,0.0
334,4776,-0.000129826,0.0
336,4802,-0.000129826,0.0
338,4830,-6.90251e-05,0.0
340,4857,-6.90251e-05,0.0
342,4886,-6.90251e-05,0.0
344,4915,-6.90251e-05,0.0
346,4941,-3.07792e-05,0.0
348,4970,-3.07792e-05,0.0
350,4995,-3.07792e-05,0.0
352,5023,4.08094e-05,0.0
354,5050,4.08094e-05,0.0
356,5076,4.08094e-05,0.0
358,5102,4.08094e-05,0.0
360,5127,0.000118282,0.0
362,5153,0.000118282,0.0
364,5182,0.000118282,0.0
366,5211,0.000162412,0.0
368,5237,0.000162412,0.0
370,5269,0.000162412,0.0
372,5300,7.4152e-05,0.0
374,5328,7.4152e-05,0.0
376,5353,7.4152e-05,0.0
378,5384,7.4152e-05,0.0
380,5413,1.33508e-05,0.0
382,5444,1.33508e-05,0.0
384,5471,1.33508e-05,0.0
386,5503,1.33508e-05,0.0
388,5531,1.33508e-05,0.0
390,5561,1.33508e-05,0.0
392,5591,5.25774e-05,0.0
394,5619,5.25774e-05,0.0
396,5649,5.25774e-05,0.0
398,5680,0.000124166,0.0
400,5712,0.000124166,0.0
402,5740,0.000124166,0.0
404,5768,0.000124166,0.0
406,5796,0.00018987,0.0
408,5821,0.00018987,0.0
410,5846,0.00018987,0.0
412,5872,0.000184967,0.0
414,5898,0.000184967,0.0
416,5925,0.000184967,0.0
418,5954,0.000184967,0.0
420,5979,0.000107495,0.0
422,6005,0.000107495,0.0
424,6033,0.000107495,0.0
426,6063,0.000124166,0.0
428,6090,0.000124166,0.0
430,6116,0.000124166,0.0
432,6142,0.000124166,0.0
434,6171,0.000234,0.0
436,6198,0.000234,0.0
438,6229,0.000234,0.0
440,6260,0.000338932,0.0
442,6289,0.000338932,0.0
444,6318,0.000338932,0.0
446,6350,0.000372274,0.0
448,6376,0.000372274,0.0
450,6404,0.000372274,0.0
452,6433,0.000372274,0.0
454,6464,0.000305589,0.0
456,6491,0.000305589,0.0
458,6519,0.000305589,0.0
460,6550,0.000201638,0.0
462,6578,0.000201638,0.0
464,6606,0.000201638,0.0
466,6635,0.000223213,0.0
468,6667,0.000223213,0.0
470,6696,0.000223213,0.0
472,6721,0.000223213,0.0
474,6749,0.000355603,0.0
476,6776,0.000355603,0.0
478,6803,0.000355603,0.0
480,6834,0.000571349,0.0
482,6866,0.000571349,0.0
484,6896,0.000571349,0.0
486,6927,0.000703739,0.0
488,6955,0.000703739,0.0
490,6984,0.000703739,0.0
492,7015,0.000691971,0.0
494,7044,0.000691971,0.0
496,7074,0.000691971,0.0
498,7103,0.000691971,0.0
500,7157,0.000681184,9.765625e-05
502,7199,0.000609595,0.0001953125
504,7240,0.000609595,0.000390625
506,7320,0.000603711,0.000878906
508,7371,0.000603711,0.00136719
510,7414,0.000990093,0.00185547
512,7459,0.000990093,0.00244141
514,7501,0.0016138,0.003125
516,7542,0.0016138,0.00380859
518,7585,0.00278961,0.0046875
520,7627,0.00278961,0.00556641
522,7666,0.00278961,0.00644531
524,7709,0.00503043,0.007421875
526,7746,0.00503043,0.00839844
528,7797,0.00826467,0.00986328
530,7837,0.00826467,0.0110352
532,7876,0.0129493,0.0123047
534,7916,0.0129493,0.0135742
536,7957,0.0129493,0.0150391
538,7996,0.0194511,0.0165039
540,8035,0.0194511,0.0179688
542,8077,0.0277456,0.0196289
544,8117,0.0277456,0.0212891
546,8160,0.0378778,0.0232422
548,8200,0.0378778,0.025
550,8241,0.0378778,0.0270508
552,8280,0.0497321,0.02890625
554,8320,0.0497321,0.030957
556,8360,0.0628838,0.0330078
558,8400,0.0628838,0.0352539
560,8442,0.0770171,0.0375977
562,8482,0.0770171,0.03984375
564,8520,0.0770171,0.0420898
566,8560,0.0928951,0.0445312
568,8604,0.0928951,0.0473633
570,8646,0.111477,0.0500977
572,8688,0.111477,0.052832
574,8730,0.13342,0.0557617
576,8771,0.13342,0.05859375
578,8813,0.13342,0.0616211
580,8852,0.158122,0.0644531
582,8895,0.158122,0.0677734
584,8937,0.184916,0.0709961
586,8980,0.184916,0.0744141
588,9019,0.215507,0.0775391
590,9060,0.215507,0.080957
592,9100,0.215507,0.0842773
594,9141,0.250876,0.0878906
596,9185,0.250876,0.0916992
598,9226,0.290761,0.0954102
600,9267,0.290761,0.0991211
602,9306,0.337274,0.102832
604,9346,0.337274,0.106641
606,9388,0.337274,0.110645
608,9429,0.389967,0.114648
610,9469,0.389967,0.118652
612,9510,0.446077,0.122852
614,9550,0.446077,0.126758
616,9650,0.509571,0.136816
618,9692,0.581028,0.141016
620,9731,0.581028,0.144922
622,9772,0.656416,0.149023
624,9816,0.656416,0.153418
626,9857,0.656416,0.157422
628,9896,0.740594,0.161426
630,9967,0.829259,0.168457
632,10008,0.829259,0.172559
634,10049,0.829259,0.17666
636,10091,0.918791,0.180859
638,10131,0.918791,0.184863
640,10176,1.01631,0.189355
642,10216,1.01631,0.193457
644,10257,1.1141,0.197559
646,10298,1.1141,0.20166
648,10340,1.20143,0.205762
650,10382,1.20143,0.209961
652,10472,1.25702,0.219043
654,10513,1.25702,0.223047
656,10552,1.29289,0.226953
658,10594,1.29289,0.23125
660,10638,1.32154,0.235645
662,10680,1.32154,0.239746
664,10723,1.34592,0.244043
666,10765,1.34592,0.24834
668,10809,1.34592,0.252734
670,10851,1.39256,0.256934
672,10895,1.39256,0.261328
674,10936,1.45046,0.26543
676,10980,1.45046,0.269824
678,11019,1.51504,0.27373
680,11059,1.51504,0.277734
682,11100,1.51504,0.281738
684,11141,1.60172,0.2859375
686,11182,1.60172,0.290039
688,11224,1.70578,0.294141
690,11311,1.81715,0.302832
692,11367,1.81715,0.308496
694,11410,1.93392,0.312793
696,11453,1.93392,0.31709
698,11493,2.04201,0.321094
700,11534,2.04201,0.325195
702,11578,2.14404,0.32959
704,11625,2.14404,0.334277
706,11669,2.14404,0.338672
708,11711,2.24652,0.342969
710,11752,2.24652,0.34707
712,11796,2.34318,0.351367
714,11835,2.34318,0.355273
716,11880,2.44547,0.359766
718,11921,2.44547,0.363867
720,11961,2.54732,0.367969
722,12003,2.54732,0.37207
724,12099,2.64402,0.381641
726,12140,2.64402,0.38584
728,12183,2.74627,0.390039
730,12228,2.74627,0.394531
732,12271,2.84542,0.398828
734,12314,2.84542,0.403223
736,12360,2.94892,0.407812
738,12405,2.94892,0.412305
740,12450,3.05748,0.416797
742,12494,3.05748,0.421289
744,12540,3.15811,0.425781
746,12586,3.15811,0.430469
748,12636,3.26196,0.435352
750,12680,3.26196,0.439746
752,12720,3.36107,0.443848
754,12765,3.36107,0.44834
756,12808,3.36107,0.452637
758,12848,3.45598,0.456641
760,12892,3.45598,0.461035
762,13014,3.64922,0.473242
764,13062,3.64922,0.47793
766,13106,3.74271,0.482324
768,13150,3.74271,0.486816
770,13200,3.83884,0.491797
772,13246,3.83884,0.496387
774,13288,3.83884,0.500586
776,13340,3.93036,0.505762
778,13397,4.02756,0.511523
780,13447,4.02756,0.516504
782,13493,4.11834,0.521094
784,13538,4.11834,0.525586
786,13580,4.20306,0.529785
788,13628,4.20306,0.53457
790,13675,4.28714,0.539355
792,13815,4.36333,0.55332
794,13863,4.44321,0.558105
796,13905,4.44321,0.562305
798,13949,4.44321,0.566699
800,13990,4.51998,0.570801
802,14032,4.51998,0.575
804,14075,4.5902,0.579297
806,14117,4.5902,0.583496
808,14164,4.66422,0.588184
810,14209,4.66422,0.592773
812,14250,4.73265,0.596777
814,14292,4.73265,0.601074
816,14334,4.73265,0.605273
818,14380,4.80293,0.609863
820,14422,4.80293,0.613965
822,14462,4.87434,0.618066
824,14500,4.87434,0.621777
826,14582,4.93773,0.62998
828,14623,5.00404,0.634082
830,14667,5.00404,0.638574
832,14712,5.00404,0.642969
834,14759,5.06661,0.647754
836,14804,5.06661,0.652148
838,14851,5.12822,0.656934
840,14897,5.12822,0.661523
842,14940,5.19203,0.66582
844,14984,5.19203,0.670215
846,15030,5.2453,0.674805
848,15078,5.2453,0.6796875
850,15121,5.29972,0.683789
852,15170,5.29972,0.688867
854,15219,5.35253,0.693652
856,15263,5.35253,0.698145
858,15309,5.40192,0.702734
860,15351,5.40192,0.706934
862,15398,5.45886,0.711621
864,15490,5.50828,0.720801
866,15535,5.50828,0.725293
868,15582,5.55733,0.72998
870,15630,5.55733,0.734766
872,15678,5.6085,0.739551
874,15723,5.6085,0.744141
876,15768,5.65221,0.748535
878,15816,5.65221,0.753418
880,15863,5.69847,0.758105
882,15909,5.69847,0.762695
884,15954,5.69847,0.7671875
886,16000,5.73768,0.771777
888,16045,5.73768,0.77627
890,16092,5.77268,0.781055
892,16137,5.77268,0.785449
894,16182,5.81658,0.790039
896,16234,5.81658,0.795117
898,16280,5.85965,0.799805
900,16331,5.85965,0.804883
902,16445,5.95644,0.816309
904,16493,5.95644,0.821094
906,16538,5.99361,0.825488
908,16582,5.99361,0.82998
910,16628,6.03431,0.83457
912,16670,6.03431,0.838867
914,16737,6.07152,0.84541
916,16792,6.07152,0.851074
918,16836,6.10646,0.855371
920,16879,6.10646,0.859766
922,16922,6.14353,0.864063
924,16965,6.14353,0.868262
926,17011,6.17302,0.872852
928,17054,6.17302,0.877246
930,17102,6.20704,0.882031
932,17201,6.2461,0.891895
934,17250,6.2461,0.896875
936,17296,6.28523,0.901465
938,17344,6.28523,0.90625
940,17447,6.33172,0.916504
942,17493,6.37127,0.921094
944,17575,6.40736,0.929199
946,17629,6.40736,0.934668
948,17674,6.44636,0.939258
950,17720,6.44636,0.94375
952,17767,6.47845,0.948535
954,17815,6.47845,0.95332
956,17863,6.51653,0.958105
958,17911,6.51653,0.962891
960,17959,6.55282,0.967676
962,18003,6.55282,0.97207
964,18049,6.55282,0.97666
966,18093,6.58508,0.981055
968,18135,6.58508,0.985254
970,18183,6.62533,0.990137
972,18231,6.62533,0.994824
974,18279,6.66229,0.999707
976,18322,6.66229,1.004
978,18425,6.70216,1.01436
980,18469,6.74306,1.01875
982,18514,6.74306,1.02324
984,18562,6.77501,1.02803
986,18612,6.77501,1.03301
988,18658,6.81092,1.0376
990,18702,6.81092,1.04199
992,18748,6.84595,1.04658
994,18796,6.84595,1.05137
996,18843,6.87894,1.05605
998,18890,6.87894,1.06084
1000,18934,6.91173,1.06523
1002,18981,6.91173,1.06982
1004,19026,6.93433,1.07441
1006,19076,6.93433,1.07939
1008,19123,6.95999,1.08418
1010,19169,6.95999,1.08867
1012,19236,6.9919,1.09541
1014,19281,6.9919,1.0999
1016,19371,7.02423,1.10889
1018,19415,7.06623,1.11328
1020,19458,7.06623,1.11758
1022,19502,7.10152,1.12207
1024,19549,7.10152,1.12666
1026,19596,7.1306,1.13135
1028,19644,7.1306,1.13613
1030,19692,7.16465,1.14092
1032,19736,7.16465,1.14541
1034,19781,7.19217,1.1499
1036,19825,7.19217,1.15439
1038,19867,7.22219,1.1585
1040,19916,7.22219,1.16338
1042,19965,7.25351,1.16816
1044,20012,7.25351,1.17295
1046,20055,7.28086,1.17725
1048,20100,7.28086,1.18184
1050,20147,7.31661,1.18643
1052,20193,7.31661,1.19102
1054,20285,7.35135,1.20029
1056,20331,7.35135,1.20488
1058,20376,7.38637,1.209375
1060,20421,7.38637,1.21387
1062,20469,7.42215,1.21865
1064,20513,7.42215,1.22314
1066,20561,7.45026,1.22783
1068,20603,7.45026,1.23213
1070,20647,7.47146,1.23643
1072,20692,7.47146,1.24102
1074,20738,7.47795,1.24561
1076,20784,7.47795,1.2502
1078,20831,7.48998,1.25488
1080,20875,7.48998,1.25928
1082,20919,7.50675,1.26367
1084,20968,7.50675,1.26865
1086,21015,7.52693,1.27324
1088,21060,7.52693,1.27783
1090,21153,7.5671,1.28711
1092,21201,7.60766,1.29189
1094,21247,7.60766,1.29658
1096,21292,7.64447,1.30098
1098,21336,7.64447,1.30547
1100,21381,7.68881,1.30996
1102,21427,7.68881,1.31445
1104,21473,7.68881,1.31904
1106,21518,7.72781,1.32363
1108,21564,7.72781,1.32822
1110,21612,7.75967,1.33301
1112,21662,7.75967,1.33799
1114,21710,7.79505,1.34277
1116,21754,7.79505,1.34717
1118,21799,7.827,1.35166
1120,21844,7.827,1.35615
1122,21891,7.86042,1.36084
1124,21933,7.86042,1.36514
1126,22030,7.89513,1.37471
1128,22076,7.92374,1.37939
1130,22122,7.92374,1.38398
1132,22168,7.95121,1.38867
1134,22215,7.95121,1.39326
1136,22260,7.97631,1.39775
1138,22304,7.97631,1.40215
1140,22348,8.00324,1.40664
1142,22395,8.00324,1.41123
1144,22441,8.03327,1.41582
1146,22484,8.03327,1.42021
1148,22529,8.06253,1.42461
1150,22574,8.06253,1.4292
1152,22621,8.09635,1.43379
1154,22669,8.09635,1.43867
1156,22751,8.12843,1.446875
1158,22799,8.12843,1.45166
1160,22850,8.16253,1.45674
1162,22943,8.19938,1.46133
1164,22991,8.19938,1.4709
1166,23037,8.22534,1.47549
1168,23086,8.22534,1.48037
1170,23135,8.2543,1.48525
1172,23183,8.2543,1.49014
1174,23228,8.28385,1.49463
1176,23275,8.28385,1.49932
1178,23323,8.30987,1.504
1180,23368,8.30987,1.50859
1182,23416,8.34454,1.51338
1184,23466,8.34454,1.51836
1186,23512,8.37292,1.52295
1188,23560,8.37292,1.52773
1190,23604,8.39355,1.53223
1192,23650,8.39355,1.53672
1194,23698,8.41424,1.5415
1196,23745,8.41424,1.54629
1198,23793,8.42952,1.55107
1200,23886,8.44359,1.56035
1202,23932,8.44359,1.56504
1204,23979,8.46256,1.56963
1206,24027,8.46256,1.57451
1208,24073,8.47586,1.5791
1210,24120,8.47586,1.58379
1212,24169,8.4872,1.58867
1214,24216,8.4872,1.59336
1216,24265,8.50094,1.59824
1218,24313,8.50094,1.60303
1220,24360,8.51475,1.60771
1222,24403,8.51475,1.61211
1224,24451,8.53743,1.6168
1226,24502,8.53743,1.62197
1228,24550,8.56341,1.62686
1230,24598,8.56341,1.63164
1232,24644,8.59456,1.63623
1234,24694,8.59456,1.64111
1236,24740,8.626,1.6458
1238,24832,8.65531,1.65498
1240,24884,8.65531,1.66025
1242,24936,8.68811,1.66533
1244,24982,8.68811,1.66992
1246,25029,8.71196,1.67471
1248,25078,8.71196,1.6792
1250,25122,8.73072,1.68398
1252,25167,8.73072,1.68848
1254,25216,8.74908,1.69336
1256,25262,8.74908,1.69805
1258,25307,8.76683,1.70254
1260,25384,8.79445,1.71025
1262,25438,8.79445,1.71553
1264,25486,8.82336,1.72041
1266,25535,8.82336,1.72529
1268,25585,8.85208,1.73027
1270,25634,8.85208,1.73516
1272,25681,8.8815,1.73984
1274,25729,8.8815,1.74463
1276,25774,8.90262,1.74922
1278,25882,8.92485,1.75996
1280,25929,8.92485,1.76465
1282,25979,8.94294,1.76963
1284,26029,8.94294,1.77461
1286,26079,8.9545,1.77959
1288,26129,8.9545,1.78467
1290,26179,8.97031,1.78965
1292,26229,8.97031,1.79463
1294,26279,8.98338,1.79961
1296,26329,8.98338,1.80459
1298,26379,9.00259,1.80967
1300,26429,9.02443,1.81465
1302,26474,9.02443,1.81914
1304,26528,9.03931,1.82422
1306,26573,9.03931,1.8291
1308,26628,9.06382,1.83467
1310,26674,9.06382,1.83926
1312,26728,9.08901,1.84424
1314,26774,9.08901,1.84922
1316,26867,9.11576,1.8584
1318,26923,9.14847,1.86406
1320,26970,9.14847,1.86875
1322,27017,9.16959,1.87344
1324,27064,9.16959,1.87812
1326,27113,9.19146,1.88301
1328,27161,9.19146,1.88789
1330,27212,9.2151,1.89297
1332,27260,9.2151,1.89775
1334,27308,9.2346,1.90264
1336,27356,9.2346,1.90732
1338,27403,9.2609,1.91201
1340,27451,9.2609,1.91689
1342,27501,9.27759,1.921875
1344,27550,9.27759,1.92676
1346,27603,9.29184,1.93213
1348,27656,9.29184,1.9373
1350,27702,9.31271,1.94189
1352,27751,9.31271,1.94688
1354,27860,9.26398,1.95771
1356,27907,9.26398,1.9625
1358,27955,8.98321,1.96719
1360,28003,8.98321,1.97207
1362,28052,8.60668,1.97695
1364,28103,8.60668,1.98203
1366,28152,8.1764,1.98691
1368,28202,8.1764,1.99189
1370,28252,7.74374,1.99697
1372,28302,7.74374,2.00205
1374,28352,7.14558,2.00693
1376,28402,7.14558,2.01201
1378,28453,6.10946,2.01699
1380,28501,6.10946,2.021875
1382,28551,4.98816,2.02695
1384,28602,4.98816,2.03193
1386,28652,3.90138,2.03691
1388,28702,3.90138,2.04189
1390,28752,3.05612,2.04697
1392,28853,2.55474,2.05703
1394,28902,2.12605,2.06201
1396,28952,2.12605,2.06699
1398,29001,1.7147,2.071875
1400,29052,1.7147,2.07695
1402,29102,1.39814,2.08193
1404,29153,1.39814,2.08701
1406,29204,1.21497,2.09219
1408,29251,1.21497,2.096875
1410,29303,1.07657,2.10205
1412,29353,1.07657,2.10703
1414,29404,0.955347,2.11211
1416,29453,0.955347,2.11709
1418,29504,0.871687,2.12217
1420,29553,0.871687,2.12705
1422,29603,0.828144,2.13203
1424,29652,0.828144,2.13691
1426,29702,0.794921,2.14189
1428,29804,0.754766,2.15215
1430,29853,0.754766,2.15703
1432,29904,0.700428,2.16211
1434,29954,0.634682,2.16719
1436,30002,0.634682,2.17197
1438,30053,0.565487,2.17705
1440,30103,0.565487,2.18203
1442,30152,0.499323,2.18701
1444,30201,0.499323,2.19189
1446,30253,0.442308,2.19707
1448,30303,0.442308,2.20205
1450,30352,0.395657,2.20693
1452,30404,0.395657,2.21221
1454,30456,0.359078,2.21738
1456,30508,0.359078,2.22256
1458,30556,0.33197,2.22734
1460,30607,0.33197,2.23242
1462,30658,0.311716,2.2375
1464,30706,0.311716,2.24229
1466,30758,0.297505,2.24756
1468,30861,0.287571,2.25781
1470,30911,0.279734,2.26279
1472,30961,0.279734,2.26787
1474,31011,0.274127,2.27285
1476,31060,0.274127,2.27783
1478,31110,0.269558,2.28271
1480,31157,0.269558,2.2874
1482,31207,0.265099,2.29248
1484,31257,0.265099,2.29746
1486,31310,0.259884,2.30283
1488,31360,0.259884,2.30771
1490,31406,0.251958,2.3124
1492,31457,0.251958,2.31738
1494,31508,0.242405,2.32256
1496,31556,0.242405,2.32734
1498,31605,0.231015,2.33232
1500,31657,0.231015,2.3375
1502,31709,0.219138,2.34268
1504,31803,0.209464,2.35205
1506,31864,0.20076,2.35811
1508,31914,0.20076,2.36309
1510,31966,0.192973,2.36826
1512,32013,0.192973,2.37305
1514,32063,0.186119,2.37813
1516,32114,0.186119,2.38311
1518,32164,0.179717,2.38809
1520,32214,0.179717,2.39316
1522,32263,0.175131,2.39805
1524,32314,0.175131,2.403125
1526,32364,0.172041,2.40811
1528,32414,0.172041,2.41318
1530,32464,0.169115,2.41816
1532,32514,0.169115,2.42314
1534,32566,0.165506,2.42832
1536,32616,0.161008,2.4333
1538,32664,0.161008,2.43818
1540,32716,0.156759,2.44326
1542,32824,0.153735,2.4542
1544,32882,0.153735,2.45996
1546,32932,0.151428,2.46494
1548,32982,0.151428,2.46992
1550,33032,0.148513,2.4749
1552,33082,0.148513,2.47998
1554,33132,0.143039,2.48496
1556,33182,0.143039,2.48994
1558,33233,0.135578,2.49502
1560,33284,0.127498,2.5001
1562,33332,0.127498,2.50498
1564,33382,0.119352,2.50996
1566,33432,0.119352,2.51494
1568,33482,0.112747,2.51992
1570,33533,0.112747,2.525
1572,33582,0.10656,2.52988
1574,33632,0.10656,2.53496
1576,33711,0.100462,2.54277
1578,33772,0.0951859,2.54893
1580,33876,0.0904444,2.5585
1582,33932,0.0904444,2.56494
1584,33982,0.0871945,2.56992
1586,34032,0.0871945,2.575
1588,34082,0.0852684,2.57998
1590,34134,0.0852684,2.58506
1592,34185,0.084275,2.59033
1594,34236,0.0843192,2.59531
1596,34287,0.0843192,2.60039
1598,34338,0.0843849,2.60557
1600,34390,0.0843849,2.61064
1602,34440,0.0835905,2.61572
1604,34491,0.0835905,2.6208
1606,34540,0.0816253,2.62568
1608,34590,0.0816253,2.63066
1610,34641,0.0785519,2.63584
1612,34690,0.0785519,2.64072
1614,34739,0.0750195,2.6457
1616,34793,0.0750195,2.65098
1618,34847,0.0713057,2.65635
1620,34946,0.0671771,2.66641
1622,34998,0.063027,2.67148
1624,35056,0.063027,2.67734
1626,35107,0.058712,2.68242
1628,35157,0.058712,2.6874
1630,35208,0.0549757,2.69248
1632,35258,0.0549757,2.69756
1634,35306,0.05263,2.70225
1636,35355,0.05263,2.70723
1638,35409,0.051361,2.7126
1640,35458,0.051361,2.71758
1642,35509,0.0510844,2.72266
1644,35562,0.0510844,2.72793
1646,35615,0.0511119,2.7332
1648,35665,0.0510511,2.73828
1650,35715,0.0510511,2.74326
1652,35766,0.050803,2.74824
1654,35816,0.050803,2.75332
1656,35921,0.0501577,2.76377
1658,35972,0.0492084,2.76885
1660,36031,0.0492084,2.77422
1662,36082,0.0481983,2.77988
1664,36132,0.0481983,2.78496
1666,36183,0.0472108,2.79004
1668,36234,0.0463606,2.79512
1670,36283,0.0463606,2.8001
1672,36334,0.0456653,2.80518
1674,36385,0.0456653,2.81025
1676,36438,0.0450141,2.81553
1678,36488,0.0450141,2.82051
1680,36540,0.0442247,2.82568
1682,36591,0.0442247,2.83086
1684,36643,0.0431812,2.83604
1686,36694,0.0431812,2.84121
1688,36745,0.0414768,2.84629
1690,36796,0.0414768,2.85137
1692,36847,0.0381485,2.85645
1694,36944,0.0331814,2.86611
1696,36996,0.0274749,2.87139
1698,37047,0.0274749,2.87646
1700,37112,0.0218459,2.88291
1702,37164,0.0218459,2.88809
1704,37216,0.0174643,2.89326
1706,37266,0.0174643,2.89834
1708,37317,0.0146223,2.90342
1710,37372,0.0146223,2.90889
1712,37421,0.0127728,2.91387
1714,37474,0.0118568,2.91914
1716,37536,0.0118568,2.92529
1718,37589,0.011189,2.93066
1720,37642,0.011189,2.93594
1722,37694,0.00978764,2.94111
1724,37746,0.00978764,2.94629
1726,37797,0.00766842,2.95137
1728,37861,0.00493629,2.95781
1730,37913,0.00493629,2.96299
1732,38020,0.00224829,2.97373
1734,38073,0.000565465,2.9791
1736,38139,-0.000306346,2.98564
1738,38197,-0.000306346,2.99141
1740,38248,-0.000560338,2.99648
1742,38297,-0.000560338,3.00146
1744,38347,-0.000610352,3.00645
1746,38413,-0.000610352,3.01309
1748,38465,-0.00057701,3.01816
1750,38515,-0.000543667,3.02314
1752,38569,-0.000543667,3.02861
1754,38619,-0.000980063,3.03359
1756,38668,-0.000980063,3.03857
1758,38718,-0.0021549,3.04355
1760,38772,-0.0021549,3.04883
1762,38824,-0.00424175,3.0542
1764,38886,-0.00424175,3.06035
1766,38939,-0.00703371,3.06563
1768,38990,-0.00703371,3.0708
1770,39090,-0.0119125,3.08076
1772,39147,-0.0119125,3.08643
1774,39196,-0.0131864,3.09131
1776,39246,-0.0131864,3.09639
1778,39296,-0.0136718,3.10127
1780,39347,-0.0136718,3.10645
1782,39397,-0.0137326,3.11133
1784,39448,-0.0137326,3.1165
1786,39513,-0.0136718,3.12305
1788,39562,-0.0136395,3.12793
1790,39615,-0.0136395,3.1332
1792,39667,-0.0136552,3.13848
1794,39721,-0.0136552,3.14385
1796,39773,-0.013816,3.14902
1798,39836,-0.013816,3.15537
1800,39889,-0.0139925,3.16064
1802,39945,-0.0141298,3.16621
1804,39997,-0.0141298,3.17139
1806,40099,-0.0141416,3.18154
1808,40160,-0.0141357,3.18779
1810,40213,-0.0141357,3.19307
1812,40265,-0.0141416,3.19824
1814,40316,-0.0141416,3.20332
1816,40370,-0.0141357,3.20869
1818,40422,-0.0141857,3.21396
1820,40484,-0.0141857,3.21924
1822,40535,-0.0141798,3.22529
1824,40586,-0.0141798,3.23037
1826,40640,-0.0141465,3.23574
1828,40691,-0.0141465,3.24082
1830,40743,-0.0140974,3.246
1832,40794,-0.0140974,3.25117
1834,40848,-0.014119,3.25654
1836,40913,-0.0141906,3.26299
1838,40967,-0.0141906,3.26846
1840,41017,-0.0142239,3.27344
1842,41068,-0.0142239,3.27852
1844,41172,-0.0143014,3.28887
1846,41236,-0.0143622,3.29531
1848,41287,-0.0143897,3.30039
1850,41340,-0.0143897,3.30576
1852,41391,-0.0143897,3.31074
1854,41443,-0.0143897,3.31602
1856,41496,-0.0143622,3.32139
1858,41552,-0.0143622,3.32695
1860,41615,-0.0142955,3.3332
1862,41666,-0.0142132,3.33838
1864,41717,-0.0142132,3.34346
1866,41774,-0.0141465,3.34912
1868,41839,-0.0141465,3.35566
1870,41895,-0.0141082,3.36123
1872,41951,-0.0141023,3.3668
1874,42015,-0.0141023,3.37324
1876,42073,-0.0141249,3.3791
1878,42141,-0.0141798,3.38584
1880,42263,-0.0142573,3.39805
1882,42316,-0.0142573,3.40332
1884,42372,-0.0143014,3.40889
1886,42439,-0.0143122,3.415625
1888,42493,-0.0143122,3.421
1890,42549,-0.0142789,3.42656
1892,42669,-0.0141906,3.43857
1894,42724,-0.0141739,3.44414
1896,42792,-0.0141739,3.45088
1898,42848,-0.0141524,3.45645
1900,42915,-0.0141582,3.46328
1902,42969,-0.0141582,3.46855
1904,43039,-0.0142024,3.47559
1906,43094,-0.0141965,3.48105
1908,43151,-0.0141965,3.48672
1910,43216,-0.0142465,3.49326
1912,43270,-0.0142465,3.49873
1914,43339,-0.0143397,3.50557
1916,43439,-0.0144113,3.515625
1918,43491,-0.014423,3.5208
1920,43546,-0.014423,3.52637
1922,43614,-0.0143897,3.53311
1924,43668,-0.0143622,3.53848
1926,43723,-0.0143622,3.54404
1928,43797,-0.0143289,3.55137
1930,43865,-0.0144005,3.55811
1932,43920,-0.0144005,3.56377
1934,43973,-0.0144946,3.56904
1936,44042,-0.0145995,3.57588
1938,44094,-0.0145995,3.58115
1940,44149,-0.0147153,3.58662
1942,44216,-0.0147153,3.59336
1944,44268,-0.0146603,3.59854
1946,44323,-0.0146211,3.604
1948,44392,-0.0146211,3.61084
1950,44446,-0.0145113,3.61631
1952,44501,-0.0145113,3.62178
1954,44565,-0.0144613,3.62822
1956,44665,-0.0145554,3.63828
1958,44743,-0.0146545,3.64609
1960,44797,-0.014781,3.65146
1962,44851,-0.014781,3.65674
1964,44917,-0.0148476,3.66338
1966,44972,-0.0148476,3.66885
1968,45039,-0.0148035,3.67559
1970,45092,-0.0147535,3.68096
1972,45145,-0.0147535,3.68623
1974,45202,-0.0147653,3.69199
1976,45266,-0.0147653,3.69824
1978,45319,-0.0148251,3.70361
1980,45374,-0.0149526,3.70908
1982,45442,-0.0149526,3.71592
1984,45495,-0.0150301,3.72119
1986,45550,-0.0150301,3.72676
1988,45615,-0.0149742,3.7332
1990,45671,-0.0148859,3.73877
1992,45739,-0.0148859,3.74561
1994,45844,-0.0148476,3.75605
1996,45916,-0.0149585,3.76328
1998,45970,-0.0151124,3.76865
2000,46039,-0.0152007,3.77559
2002,46097,-0.0152007,3.78145
2004,46163,-0.0152556,3.78799
2006,46216,-0.0152556,3.79336
2008,46273,-0.0151566,3.79902
2010,46342,-0.0150516,3.80596
2012,46403,-0.0150516,3.81201
2014,46467,-0.0151507,3.81846
2016,46524,-0.0152115,3.82412
2018,46642,-0.0152507,3.83594
2020,46742,-0.0153556,3.8459
2022,46818,-0.015388,3.85342
2024,46874,-0.015388,3.85918
2026,46942,-0.0154047,3.86592
2028,46995,-0.0153605,3.87119
2030,47052,-0.0153605,3.87695
2032,47170,-0.0153223,3.88867
2034,47242,-0.0152674,3.8959
2036,47302,-0.0152399,3.90186
2038,47368,-0.0153772,3.9085
2040,47441,-0.0153772,3.91416
2042,47501,-0.0154105,3.92178
2044,47572,-0.0153605,3.92891
2046,47720,-0.0153772,3.94375
2048,47792,-0.0153331,3.95088
2050,47849,-0.0153939,3.95654
2052,47918,-0.0153939,3.96357
2054,47974,-0.0154713,3.96914
2056,48043,-0.0155488,3.97607
2058,48096,-0.0155488,3.98125
2060,48152,-0.0156253,3.98691
2062,48219,-0.0156253,3.99355
2064,48291,-0.0157028,3.99922
2066,48343,-0.0158852,4.00605
2068,48442,-0.0160009,4.01602
2070,48520,-0.0160509,4.02373
2072,48574,-0.0160509,4.0291
2074,48647,-0.0161,4.03633
2076,48703,-0.0160558,4.04199
2078,48770,-0.0160558,4.04873
2080,48824,-0.015996,4.0541
2082,48897,-0.0160509,4.06143
2084,48967,-0.0160509,4.06846
2086,49042,-0.0161284,4.07588
2088,49101,-0.0162167,4.08184
2090,49174,-0.0162167,4.08906
2092,49243,-0.0163157,4.09609
2094,49299,-0.0163324,4.10156
2096,49370,-0.0163216,4.10869
2098,49442,-0.0163216,4.11592
2100,49498,-0.0162657,4.12148
2102,49570,-0.0162931,4.12871
2104,49642,-0.0162931,4.13594
2106,49747,-0.0164255,4.14639
2108,49802,-0.0165471,4.15195
2110,49870,-0.0167129,4.15869
2112,49942,-0.0167129,4.16592
2114,49998,-0.0167129,4.17148
2116,50073,-0.016707,4.17891
2118,50142,-0.0168119,4.18594
2120,50203,-0.0168119,4.19199
2122,50271,-0.0169335,4.19883
2124,50342,-0.0170718,4.20586
2126,50398,-0.0170718,4.21143
2128,50467,-0.0171659,4.21846
2130,50521,-0.0171434,4.22373
2132,50592,-0.0171434,4.23086
2134,50643,-0.0171659,4.23604
2136,50697,-0.0171659,4.24141
2138,50771,-0.0173866,4.24883
2140,50841,-0.0176072,4.2542
2142,50892,-0.0177779,4.26094
2144,51003,-0.0178995,4.27207
2146,51069,-0.0178995,4.27861
2148,51124,-0.0179054,4.28408
2150,51195,-0.0179103,4.29121
2152,51253,-0.0179103,4.29697
2154,51316,-0.0180152,4.30332
2156,51369,-0.0181535,4.30859
2158,51422,-0.0181535,4.31387
2160,51492,-0.0182309,4.3209
2162,51548,-0.0182309,4.32646
2164,51621,-0.0182525,4.33379
2166,51692,-0.0183408,4.34092
2168,51751,-0.0184349,4.34678
2170,51819,-0.0184349,4.35361
2172,51874,-0.0185732,4.35908
2174,51946,-0.0187664,4.36631
2176,52017,-0.0187664,4.37334
2178,52072,-0.0188595,4.37891
2180,52142,-0.0188929,4.38584
2182,52268,-0.0189262,4.39854
2184,52341,-0.0190361,4.4042
2186,52404,-0.0190361,4.41201
2188,52469,-0.0191743,4.41855
2190,52523,-0.0193234,4.42402
2192,52595,-0.0193234,4.43115
2194,52653,-0.0194342,4.43701
2196,52717,-0.019445,4.44346
2198,52774,-0.019445,4.44902
2200,52848,-0.0194058,4.45654
2202,52951,-0.0194009,4.4668
2204,53019,-0.0194999,4.47363
2206,53092,-0.0196598,4.48086
2208,53148,-0.0196598,4.48652
2210,53219,-0.0197922,4.49355
2212,53273,-0.0199687,4.49902
2214,53345,-0.0199687,4.50615
2216,53403,-0.0200736,4.51201
2218,53516,-0.0200246,4.52334
2220,53592,-0.0200795,4.53086
2222,53649,-0.0200795,4.53652
2224,53721,-0.0201011,4.54375
2226,53792,-0.0201295,4.55088
2228,53851,-0.0202894,4.55674
2230,53920,-0.0202894,4.56367
2232,53992,-0.020411,4.5709
2234,54053,-0.0205159,4.57705
2236,54120,-0.0205159,4.58379
2238,54192,-0.0206757,4.59092
2240,54248,-0.0207307,4.59648
2242,54319,-0.0208189,4.60361
2244,54374,-0.0208189,4.60908
2246,54448,-0.0209297,4.6165
2248,54521,-0.021018,4.62383
2250,54592,-0.021018,4.63086
2252,54652,-0.0211945,4.63682
2254,54719,-0.0213485,4.64355
2256,54842,-0.0214593,4.65586
2258,54919,-0.0215642,4.66357
2260,54974,-0.0216692,4.66914
2262,55049,-0.0216692,4.67666
2264,55122,-0.0217682,4.68379
2266,55192,-0.021829,4.69092
2268,55246,-0.021829,4.69629
2270,55303,-0.0218898,4.70195
2272,55369,-0.021928,4.70859
2274,55442,-0.021928,4.71592
2276,55498,-0.0219888,4.72148
2278,55567,-0.0221105,4.72842
2280,55642,-0.0221105,4.73584
2282,55704,-0.0222046,4.74209
2284,55769,-0.0223311,4.74854
2286,55842,-0.0224086,4.75586
2288,55899,-0.0224086,4.76152
2290,55969,-0.022436,4.76855
2292,56042,-0.0224576,4.77588
2294,56103,-0.0224576,4.78203
2296,56242,-0.0223586,4.7959
2298,56298,-0.0223586,4.80146
2300,56371,-0.0223419,4.80879
2302,56442,-0.0224468,4.81592
2304,56500,-0.0224468,4.82168
2306,56571,-0.0225017,4.82881
2308,56642,-0.02264,4.83584
2310,56705,-0.0227557,4.84219
2312,56770,-0.0227557,4.84873
2314,56842,-0.0227175,4.85586
2316,56897,-0.0227724,4.86133
2318,56954,-0.0227724,4.86709
2320,57018,-0.0227449,4.87344
2322,57073,-0.0227449,4.879
2324,57142,-0.0227391,4.88584
2326,57202,-0.0228665,4.89189
2328,57270,-0.0229166,4.89873
2330,57342,-0.0229166,4.90586
2332,57400,-0.0229607,4.91162
2334,57521,-0.0229381,4.92373
2336,57592,-0.0228773,4.93086
2338,57648,-0.0228773,4.93643
2340,57719,-0.0229489,4.94355
2342,57792,-0.0230597,4.95088
2344,57849,-0.0231647,4.95664
2346,57920,-0.0231647,4.96367
2348,57974,-0.023148,4.96914
2350,58047,-0.0230764,4.97637
2352,58118,-0.0230764,4.9835
2354,58192,-0.0230931,4.99082
2356,58246,-0.0231696,4.99521
2358,58318,-0.0234187,4.99893
2360,58391,-0.0234187,5.0