File: tensile_tests/04.06.25_BslA_dry_idx0.csv
,Time,Force (Newtons),Distance (millimeters)
0,59,0.00253597,0.0
2,99,0.00241535,0.0
4,130,0.00231042,0.0
6,157,0.00231042,0.0
8,185,0.00231042,0.0
10,211,0.00219666,0.0
12,241,0.00219666,0.0
14,270,0.00219666,0.0
16,297,0.00208193,0.0
18,325,0.00208193,0.0
20,351,0.00208193,0.0
22,377,0.00208193,0.0
24,405,0.00198288,0.0
26,433,0.00198288,0.0
28,466,0.00198288,0.0
30,497,0.00187501,0.0
32,525,0.00187501,0.0
34,553,0.00187501,0.0
36,579,0.00187501,0.0
38,604,0.00178871,0.0
40,633,0.00178871,0.0
42,661,0.00178871,0.0
44,692,0.00171908,0.0
46,719,0.00171908,0.0
48,746,0.00171908,0.0
50,776,0.00165436,0.0
52,808,0.00165436,0.0
54,840,0.00165436,0.0
56,874,0.0015965,0.0
58,907,0.0015965,0.0
60,954,0.0015965,0.0
62,988,0.00153079,0.0
64,1018,0.00153079,0.0
66,1049,0.00153079,0.0
68,1080,0.00146018,0.0
70,1251,0.00130524,0.0
72,1278,0.00130524,0.0
74,1307,0.00130524,0.0
76,1333,0.00130524,0.0
78,1360,0.00123463,0.0
80,1387,0.00123463,0.0
82,1413,0.00123463,0.0
84,1439,0.00118167,0.0
86,1465,0.00118167,0.0
88,1494,0.00118167,0.0
90,1522,0.00118167,0.0
92,1549,0.00113068,0.0
94,1576,0.00113068,0.0
96,1604,0.00113068,0.0
98,1632,0.00107969,0.0
100,1659,0.00107969,0.0
102,1685,0.00107969,0.0
104,1710,0.00107969,0.0
106,1737,0.00103654,0.0
108,1764,0.00103654,0.0
110,1790,0.00103654,0.0
112,1819,0.0009826,0.0
114,1846,0.0009826,0.0
116,1871,0.0009826,0.0
118,1898,0.0009826,0.0
120,1926,0.000937489,0.0
122,1955,0.000937489,0.0
124,1982,0.000937489,0.0
126,2010,0.000887475,0.0
128,2035,0.000887475,0.0
130,2063,0.000887475,0.0
132,2090,0.000887475,0.0
134,2117,0.000823732,0.0
136,2145,0.000823732,0.0
138,2172,0.000823732,0.0
140,2198,0.000752144,0.0
142,2226,0.000752144,0.0
144,2253,0.000752144,0.0
146,2280,0.000752144,0.0
148,2310,0.000674671,0.0
150,2337,0.000674671,0.0
152,2364,0.000674671,0.0
154,2390,0.000603082,0.0
156,2416,0.000603082,0.0
158,2444,0.000603082,0.0
160,2472,0.000603082,0.0
162,2502,0.000543262,0.0
164,2530,0.000543262,0.0
166,2558,0.000543262,0.0
168,2587,0.000486383,0.0
170,2614,0.000486383,0.0
172,2642,0.000486383,0.0
174,2670,0.000486383,0.0
176,2697,0.000429505,0.0
178,2724,0.000429505,0.0
180,2751,0.000429505,0.0
182,2779,0.000375568,0.0
184,2805,0.000375568,0.0
186,2832,0.000375568,0.0
188,2858,0.000375568,0.0
190,2890,0.000337322,0.0
192,2919,0.000337322,0.0
194,2946,0.000337322,0.0
196,2972,0.000307902,0.0
198,2998,0.000307902,0.0
200,3025,0.000307902,0.0
202,3054,0.00027456,0.0
204,3080,0.00027456,0.0
206,3108,0.00027456,0.0
208,3136,0.00027456,0.0
210,3161,0.000242198,0.0
212,3188,0.000242198,0.0
214,3216,0.000242198,0.0
216,3243,0.000242198,0.0
218,3270,0.000203952,0.0
220,3297,0.000203952,0.0
222,3326,0.000203952,0.0
224,3353,0.000154919,0.0
226,3382,0.000154919,0.0
228,3409,0.000154919,0.0
230,3440,0.00011275,0.0
232,3469,0.00011275,0.0
234,3500,0.00011275,0.0
236,3530,0.00011275,0.0
238,3558,6.46974e-05,0.0
240,3588,6.46974e-05,0.0
242,3616,6.46974e-05,0.0
244,3646,6.83818e-06,0.0
246,3675,6.83818e-06,0.0
248,3703,6.83818e-06,0.0
250,3733,-4.31757e-05,0.0
252,3762,-4.31757e-05,0.0
254,3788,-4.31757e-05,0.0
256,3817,-8.6325e-05,0.0
258,3846,-8.6325e-05,0.0
260,3875,-8.6325e-05,0.0
262,3907,-8.6325e-05,0.0
264,3940,-0.000115745,0.0
266,3968,-0.000115745,0.0
268,3996,-0.000115745,0.0
270,4022,-0.000141242,0.0
272,4049,-0.000141242,0.0
274,4076,-0.000141242,0.0
276,4103,-0.000168701,0.0
278,4131,-0.000168701,0.0
280,4159,-0.000168701,0.0
282,4185,-0.000168701,0.0
284,4215,-0.000201063,0.0
286,4243,-0.000201063,0.0
288,4270,-0.000201063,0.0
290,4296,-0.000240289,0.0
292,4324,-0.000240289,0.0
294,4352,-0.000240289,0.0
296,4381,-0.000240289,0.0
298,4408,-0.000282458,0.0
300,4436,-0.000282458,0.0
302,4468,-0.000282458,0.0
304,4496,-0.000321685,0.0
306,4525,-0.000321685,0.0
308,4554,-0.000321685,0.0
310,4581,-0.000360911,0.0
312,4609,-0.000360911,0.0
314,4641,-0.000360911,0.0
316,4673,-0.000397196,0.0
318,4704,-0.000397196,0.0
320,4734,-0.000397196,0.0
322,4764,-0.000397196,0.0
324,4792,-0.000427596,0.0
326,4822,-0.000427596,0.0
328,4849,-0.000427596,0.0
330,4878,-0.000466823,0.0
332,4906,-0.000466823,0.0
334,4935,-0.000466823,0.0
336,4966,-0.000505069,0.0
338,4993,-0.000505069,0.0
340,5020,-0.000505069,0.0
342,5050,-0.000505069,0.0
344,5080,-0.000546257,0.0
346,5108,-0.000546257,0.0
348,5140,-0.000546257,0.0
350,5170,-0.000579599,0.0
352,5199,-0.000579599,0.0
354,5229,-0.000579599,0.0
356,5259,-0.00061,0.0
358,5287,-0.00061,0.0
360,5317,-0.00061,0.0
362,5344,-0.000636478,0.0
364,5372,-0.000636478,0.0
366,5398,-0.000636478,0.0
368,5425,-0.000636478,0.0
370,5455,-0.000660995,0.0
372,5482,-0.000660995,0.0
374,5510,-0.000660995,0.0
376,5541,-0.000694337,0.0
378,5568,-0.000694337,0.0
380,5595,-0.000694337,0.0
382,5623,-0.000694337,0.0
384,5651,-0.000722777,0.0
386,5676,-0.000722777,0.0
388,5704,-0.000722777,0.0
390,5734,-0.000761023,0.0
392,5761,-0.000761023,0.0
394,5788,-0.000761023,0.0
396,5817,-0.000800249,0.0
398,5844,-0.000800249,0.0
400,5872,-0.000800249,0.0
402,5900,-0.000800249,0.0
404,5931,-0.000833592,0.0
406,5961,-0.000833592,0.0
408,5988,-0.000833592,0.0
410,6017,-0.00087576,0.0
412,6050,-0.00087576,0.0
414,6079,-0.00087576,0.0
416,6107,-0.000913026,0.0
418,6136,-0.000913026,0.0
420,6164,-0.000913026,0.0
422,6193,-0.000913026,0.0
424,6225,-0.000947349,0.0
426,6255,-0.000947349,0.0
428,6285,-0.000947349,0.0
430,6314,-0.000983633,0.0
432,6342,-0.000983633,0.0
434,6371,-0.000983633,0.0
436,6397,-0.00101501,0.0
438,6427,-0.00101501,0.0
440,6456,-0.00101501,0.0
442,6486,-0.00104051,0.0
444,6514,-0.00104051,0.0
446,6542,-0.00104051,0.0
448,6569,-0.00104051,0.0
450,6599,-0.00106699,0.0
452,6627,-0.00106699,0.0
454,6658,-0.00106699,0.0
456,6688,-0.00109445,0.0
458,6715,-0.00109445,0.0
460,6745,-0.00109445,0.0
462,6774,-0.00112779,0.0
464,6802,-0.00112779,0.0
466,6830,-0.00112779,0.0
468,6859,-0.00112779,0.0
470,6890,-0.00116506,0.0
472,6918,-0.00116506,0.0
474,6946,-0.00116506,0.0
476,6975,-0.00121017,0.0
478,7003,-0.00121017,0.0
480,7034,-0.00121017,0.0
482,7064,-0.00124547,0.0
484,7093,-0.00124547,0.0
486,7122,-0.00124547,0.0
488,7152,-0.00127489,0.0
490,7185,-0.00127489,0.0
492,7214,-0.00127489,0.0
494,7242,-0.00131216,0.0
496,7274,-0.00131216,0.0
498,7302,-0.00131216,0.0
500,7349,-0.00134354,9.765625e-05
502,7475,-0.00137982,0.0005859375
504,7517,-0.00137982,0.000878906
506,7560,-0.0012592,0.00136719
508,7598,-0.0012592,0.00175781
510,7640,-0.000758081,0.00234375
512,7681,-0.000758081,0.00292969
514,7723,5.88134e-05,0.00361328
516,7762,5.88134e-05,0.004296875
518,7799,5.88134e-05,0.005078125
520,7840,0.00148666,0.00595703
522,7881,0.00148666,0.00693359
524,7922,0.00381182,0.00791016
526,7965,0.00381182,0.00908203
528,8003,0.00725689,0.01015625
530,8044,0.00725689,0.0114258
532,8088,0.00725689,0.0128906
534,8129,0.0124083,0.0142578
536,8167,0.0124083,0.015625
538,8209,0.019781,0.0171875
540,8248,0.019781,0.01875
542,8289,0.0297014,0.0204102
544,8329,0.0297014,0.0220703
546,8376,0.0297014,0.02421875
548,8417,0.0419754,0.0261719
550,8457,0.0419754,0.0280273
552,8499,0.0562166,0.0301758
554,8543,0.0562166,0.0324219
556,8589,0.0714581,0.0349609
558,8630,0.0714581,0.037207
560,8667,0.0714581,0.0393555
562,8712,0.0871428,0.0419922
564,8814,0.103938,0.0483398
566,8864,0.121586,0.0516602
568,8910,0.121586,0.0546875
570,8949,0.121586,0.0575195
572,8993,0.138344,0.0606445
574,9033,0.138344,0.0635742
576,9079,0.152855,0.0669922
578,9124,0.152855,0.0704102
580,9167,0.164759,0.0738281
582,9211,0.164759,0.07734375
584,9251,0.174432,0.0806641
586,9297,0.174432,0.0845703
588,9340,0.183333,0.0882812
590,9388,0.183333,0.0924805
592,9494,0.192249,0.102148
594,9546,0.200929,0.107129
596,9588,0.200929,0.11123
598,9630,0.209253,0.11543
600,9671,0.209253,0.119531
602,9714,0.209253,0.123828
604,9751,0.219289,0.127539
606,9794,0.219289,0.131738
608,9837,0.235759,0.136133
610,9879,0.235759,0.140332
612,9924,0.258978,0.144727
614,9968,0.258978,0.149219
616,10009,0.287784,0.153223
618,10049,0.287784,0.157227
620,10089,0.287784,0.161328
622,10131,0.321228,0.16543
624,10171,0.321228,0.169531
626,10210,0.353335,0.17334
628,10252,0.353335,0.177637
630,10350,0.383802,0.187402
632,10396,0.414309,0.19209
634,10439,0.414309,0.196387
636,10481,0.442552,0.200488
638,10521,0.442552,0.204492
640,10563,0.442552,0.208789
642,10605,0.47057,0.212988
644,10647,0.47057,0.21709
646,10688,0.496689,0.221191
648,10729,0.496689,0.225293
650,10769,0.520652,0.229297
652,10809,0.520652,0.233301
654,10849,0.520652,0.237305
656,10889,0.545432,0.241406
658,10932,0.545432,0.245605
660,10975,0.569055,0.249902
662,11017,0.569055,0.254102
664,11059,0.593344,0.258301
666,11099,0.593344,0.262305
668,11139,0.593344,0.266309
670,11235,0.617421,0.275879
672,11284,0.638591,0.280762
674,11326,0.638591,0.285059
676,11366,0.65979,0.288965
678,11409,0.65979,0.293262
680,11448,0.666841,0.297266
682,11490,0.666841,0.301367
684,11531,0.643396,0.305469
686,11575,0.643396,0.309863
688,11615,0.643396,0.313867
690,11658,0.610176,0.318164
692,11698,0.610176,0.322266
694,11740,0.569518,0.326367
696,11782,0.569518,0.330664
698,11825,0.529811,0.334863
700,11867,0.529811,0.3390625
702,11905,0.50646,0.342969
704,11949,0.50646,0.347266
706,11989,0.50646,0.35127
708,12030,0.485192,0.355371
710,12069,0.485192,0.359277
712,12166,0.465242,0.368945
714,12207,0.450574,0.373047
716,12248,0.450574,0.377148
718,12288,0.431493,0.381152
720,12329,0.431493,0.385352
722,12370,0.431493,0.389453
724,12413,0.359581,0.393652
726,12456,0.359581,0.397949
728,12497,0.255295,0.402051
730,12539,0.255295,0.406348
732,12583,0.151446,0.410742
734,12681,0.0606306,0.420508
736,12723,0.0606306,0.424609
738,12766,0.0261749,0.429004
740,12809,0.0261749,0.433301
742,12849,0.0261749,0.437305
744,12889,0.0246647,0.441309
746,12931,0.0246647,0.44541
748,12972,0.024648,0.449512
750,13015,0.024648,0.453906
752,13112,0.0246431,0.463574
754,13154,0.0246323,0.467773
756,13197,0.0246323,0.47207
758,13238,0.0246255,0.47627
760,13281,0.0246255,0.480566
762,13322,0.0246255,0.48457
764,13363,0.0246176,0.488672
766,13406,0.0246176,0.492969
768,13446,0.0246127,0.496973
770,13485,0.0246127,0.500879
772,13525,0.0246137,0.504883
774,13568,0.0246137,0.50918
776,13609,0.0246137,0.513281
778,13648,0.0246098,0.517285
780,13690,0.0246098,0.521387
782,13731,0.0246088,0.525488
784,13772,0.0246088,0.52959
786,13815,0.0246107,0.533887
788,13856,0.0246107,0.537988
790,13897,0.0246107,0.54209
792,13940,0.0246098,0.546387
794,14030,0.0246147,0.555371
796,14076,0.0246147,0.559961
798,14115,0.0246245,0.563965
800,14159,0.0246245,0.568262
802,14202,0.0246362,0.572559
804,14244,0.0246362,0.576758
806,14285,0.0246421,0.580859
808,14327,0.0246421,0.585059
810,14370,0.0246421,0.589355
812,14415,0.024648,0.593848
814,14455,0.024648,0.597949
816,14496,0.0246568,0.601953
818,14538,0.0246568,0.606152
820,14584,0.0246598,0.610742
822,14626,0.0246598,0.615039
824,14668,0.0246686,0.619238
826,14713,0.0246686,0.62373
828,14756,0.0246686,0.62793
830,14796,0.0246784,0.632031
832,14837,0.0246784,0.636133
834,14881,0.0246774,0.64043
836,14979,0.0246764,0.650293
838,15023,0.0246764,0.654688
840,15064,0.0246823,0.658789
842,15105,0.0246823,0.662891
844,15148,0.0246912,0.667187
846,15190,0.0246912,0.671387
848,15236,0.0246912,0.675977
850,15279,0.0246912,0.680273
852,15321,0.0246912,0.684473
854,15364,0.0246764,0.68877
856,15409,0.0246764,0.693359
858,15454,0.0246578,0.697754
860,15497,0.0246578,0.702051
862,15541,0.0246411,0.706445
864,15586,0.0246411,0.7109375
866,15629,0.0246353,0.715332
868,15671,0.0246353,0.719434
870,15714,0.0246411,0.723828
872,15759,0.0246411,0.72832
874,15801,0.0246411,0.73252
876,15895,0.0246549,0.741895
878,15944,0.0246617,0.746777
880,15986,0.0246617,0.750977
882,16027,0.0246784,0.755078
884,16070,0.0246784,0.759375
886,16111,0.0246921,0.763477
888,16154,0.0246921,0.767773
890,16199,0.0246921,0.772266
892,16244,0.0246921,0.776758
894,16288,0.0246892,0.781152
896,16330,0.0246892,0.785352
898,16375,0.0246892,0.789941
900,16421,0.0246755,0.794434
902,16464,0.0246755,0.79873
904,16506,0.0246647,0.803027
906,16548,0.0246647,0.807227
908,16590,0.0246715,0.811426
910,16634,0.0246715,0.815723
912,16677,0.0246784,0.82002
914,16718,0.0246784,0.824219
916,16761,0.0246843,0.828516
918,16857,0.0246931,0.838086
920,16902,0.0246931,0.842578
922,16947,0.0246931,0.84707
924,16992,0.0246843,0.85166
926,17034,0.0246843,0.855664
928,17078,0.0246823,0.860156
930,17120,0.0246823,0.864355
932,17163,0.0246784,0.868652
934,17205,0.0246784,0.872852
936,17248,0.0246706,0.877148
938,17290,0.0246706,0.881348
940,17333,0.0246735,0.885645
942,17376,0.0246735,0.889941
944,17422,0.0246735,0.894531
946,17465,0.0246706,0.898828
948,17509,0.0246706,0.90332
950,17552,0.0246774,0.907617
952,17596,0.0246774,0.911914
954,17637,0.0246774,0.916016
956,17680,0.0246774,0.92041
958,17779,0.0246745,0.929004
960,17823,0.0246735,0.934668
962,17866,0.0246735,0.938965
964,17910,0.0246617,0.943359
966,17954,0.0246617,0.947754
968,17998,0.0246666,0.952148
970,18041,0.0246666,0.956445
972,18085,0.0246666,0.9609375
974,18130,0.0246706,0.965332
976,18173,0.0246706,0.969727
978,18216,0.0246706,0.973926
980,18262,0.0246706,0.978613
982,18305,0.0246774,0.98291
984,18350,0.0246774,0.987305
986,18399,0.0246784,0.992285
988,18443,0.0246784,0.99668
990,18487,0.0246735,1.00107
992,18530,0.0246735,1.00537
994,18574,0.0246647,1.00967
996,18615,0.0246647,1.01396
998,18660,0.0246647,1.01836
1000,18763,0.0246617,1.02861
1002,18807,0.0246617,1.03311
1004,18852,0.0246588,1.0376
1006,18895,0.0246588,1.04189
1008,18940,0.0246588,1.04639
1010,18985,0.0246676,1.05088
1012,19029,0.0246676,1.05518
1014,19073,0.0246755,1.05967
1016,19119,0.0246755,1.06426
1018,19163,0.0246627,1.06865
1020,19207,0.0246627,1.07305
1022,19252,0.0246617,1.07754
1024,19298,0.0246617,1.08213
1026,19342,0.0246637,1.08652
1028,19388,0.0246637,1.09111
1030,19431,0.0246529,1.09541
1032,19476,0.0246529,1.1
1034,19522,0.0246578,1.10459
1036,19567,0.0246578,1.10898
1038,19613,0.0246578,1.11357
1040,19716,0.0246706,1.12393
1042,19765,0.0246706,1.12891
1044,19811,0.0246715,1.1334
1046,19854,0.0246715,1.13779
1048,19899,0.0246735,1.14219
1050,19940,0.0246735,1.14639
1052,19982,0.0246735,1.15059
1054,20028,0.0246686,1.15508
1056,20070,0.0246686,1.159375
1058,20121,0.0246529,1.16445
1060,20171,0.0246529,1.16943
1062,20216,0.0246578,1.17393
1064,20262,0.0246578,1.17861
1066,20307,0.0246529,1.18311
1068,20354,0.0246529,1.18779
1070,20398,0.0246529,1.19209
1072,20444,0.0246529,1.19678
1074,20493,0.0246666,1.20156
1076,20536,0.0246666,1.20596
1078,20583,0.0246735,1.21064
1080,20627,0.0246735,1.21514
1082,20719,0.0246833,1.22422
1084,20764,0.0246823,1.22881
1086,20809,0.0246823,1.2332
1088,20855,0.0246814,1.23789
1090,20900,0.0246814,1.24238
1092,20948,0.0246755,1.24717
1094,20993,0.0246755,1.25166
1096,21037,0.0246755,1.25605
1098,21084,0.0246686,1.26074
1100,21130,0.0246686,1.26543
1102,21177,0.0246715,1.27012
1104,21220,0.0246715,1.27432
1106,21265,0.0246794,1.27891
1108,21310,0.0246794,1.2834
1110,21355,0.024697,1.28779
1112,21400,0.024697,1.29238
1114,21445,0.0247078,1.29678
1116,21490,0.0247078,1.30137
1118,21533,0.0247059,1.30566
1120,21581,0.0247059,1.31045
1122,21683,0.024698,1.32061
1124,21727,0.0246764,1.3251
1126,21772,0.0246764,1.32959
1128,21818,0.0246617,1.33418
1130,21864,0.0246617,1.33877
1132,21910,0.0246696,1.34336
1134,21956,0.0246696,1.34795
1136,22000,0.0246686,1.35234
1138,22045,0.0246686,1.35684
1140,22092,0.0246774,1.36152
1142,22134,0.0246774,1.36572
1144,22178,0.0246774,1.37021
1146,22223,0.0246931,1.37471
1148,22270,0.0246931,1.3793
1150,22314,0.0246931,1.38379
1152,22359,0.0246931,1.38828
1154,22404,0.0247,1.39277
1156,22449,0.0247,1.39727
1158,22494,0.024699,1.40176
1160,22541,0.024699,1.40645
1162,22637,0.0246872,1.41455
1164,22686,0.0246804,1.421
1166,22731,0.0246804,1.42549
1168,22775,0.0246755,1.42979
1170,22820,0.0246755,1.434375
1172,22866,0.0246715,1.43896
1174,22914,0.0246715,1.44375
1176,22959,0.0246823,1.44824
1178,23002,0.0246823,1.45254
1180,23048,0.0246892,1.45713
1182,23095,0.0246892,1.46182
1184,23140,0.0246853,1.46641
1186,23185,0.0246853,1.4708
1188,23230,0.0246774,1.47539
1190,23276,0.0246774,1.47988
1192,23321,0.0246774,1.48447
1194,23367,0.0246617,1.48906
1196,23416,0.0246617,1.49395
1198,23463,0.0246549,1.49863
1200,23508,0.0246549,1.50312
1202,23553,0.0246539,1.50762
1204,23654,0.0246529,1.51777
1206,23700,0.0246529,1.52227
1208,23747,0.0246568,1.52705
1210,23792,0.0246568,1.53154
1212,23840,0.0246529,1.53633
1214,23888,0.0246529,1.54121
1216,23936,0.0246392,1.546
1218,23985,0.0246392,1.55088
1220,24032,0.0246333,1.55547
1222,24078,0.0246333,1.56016
1224,24124,0.0246313,1.56475
1226,24170,0.0246313,1.56934
1228,24218,0.0246372,1.57412
1230,24265,0.0246372,1.57881
1232,24311,0.02465,1.5835
1234,24355,0.02465,1.58779
1236,24402,0.0246578,1.59258
1238,24448,0.0246578,1.59717
1240,24495,0.0246529,1.60186
1242,24542,0.0246529,1.60654
1244,24641,0.0246519,1.61641
1246,24688,0.024648,1.62119
1248,24734,0.024648,1.62578
1250,24782,0.0246402,1.63057
1252,24829,0.0246402,1.63525
1254,24874,0.0246392,1.63975
1256,24918,0.0246392,1.64414
1258,24963,0.0246294,1.64863
1260,25008,0.0246294,1.653125
1262,25053,0.0246137,1.65771
1264,25100,0.0246137,1.6623
1266,25147,0.0246117,1.66709
1268,25192,0.0246117,1.67158
1270,25241,0.0246186,1.67637
1272,25288,0.0246186,1.68115
1274,25333,0.0246186,1.68574
1276,25381,0.0246186,1.69043
1278,25432,0.0246304,1.69561
1280,25480,0.0246304,1.70029
1282,25525,0.0246362,1.70479
1284,25642,0.0246411,1.7165
1286,25690,0.0246411,1.72129
1288,25740,0.024646,1.72637
1290,25785,0.024646,1.73086
1292,25832,0.0246568,1.73555
1294,25880,0.0246568,1.74033
1296,25925,0.0246666,1.74482
1298,25972,0.0246666,1.74951
1300,26017,0.0246627,1.7541
1302,26065,0.0246627,1.75889
1304,26158,0.0246578,1.76807
1306,26204,0.024648,1.77266
1308,26249,0.024648,1.77725
1310,26298,0.0246392,1.78213
1312,26346,0.0246392,1.78691
1314,26394,0.0246392,1.7917
1316,26441,0.0246392,1.79648
1318,26490,0.0246421,1.80127
1320,26541,0.0246421,1.80645
1322,26594,0.0246431,1.81172
1324,26690,0.0246411,1.82139
1326,26737,0.0246411,1.82607
1328,26781,0.0246392,1.83047
1330,26828,0.0246392,1.83506
1332,26876,0.0246382,1.83984
1334,26922,0.0246382,1.84453
1336,26968,0.0246372,1.84912
1338,27014,0.0246372,1.85371
1340,27058,0.0246323,1.85811
1342,27105,0.0246323,1.86279
1344,27152,0.0246166,1.86748
1346,27198,0.0246166,1.87217
1348,27246,0.0246058,1.87686
1350,27292,0.0246058,1.88154
1352,27336,0.0246147,1.88594
1354,27384,0.0246147,1.89072
1356,27431,0.0246245,1.89551
1358,27478,0.0246245,1.9001
1360,27526,0.0246372,1.90488
1362,27658,0.02465,1.91807
1364,27704,0.0246539,1.92275
1366,27752,0.0246539,1.92754
1368,27799,0.0246529,1.93223
1370,27848,0.0246529,1.93721
1372,27899,0.0246598,1.94219
1374,27950,0.0246598,1.94736
1376,28002,0.0246608,1.95244
1378,28050,0.0246608,1.95732
1380,28099,0.0246539,1.96221
1382,28145,0.0246539,1.96689
1384,28192,0.0246598,1.97158
1386,28239,0.0246598,1.97617
1388,28288,0.0246666,1.98115
1390,28335,0.0246666,1.98584
1392,28383,0.0246715,1.990625
1394,28432,0.0246715,1.99551
1396,28476,0.0246764,2.0
1398,28524,0.0246764,2.00479
1400,28575,0.0246706,2.00986
1402,28672,0.0246617,2.01953
1404,28730,0.0246617,2.02539
1406,28778,0.0246598,2.03018
1408,28827,0.0246598,2.03496
1410,28875,0.0246549,2.03984
1412,28922,0.0246549,2.04453
1414,28969,0.0246451,2.04922
1416,29016,0.0246451,2.05391
1418,29065,0.0246333,2.05879
1420,29114,0.0246333,2.06377
1422,29162,0.0246313,2.06855
1424,29210,0.0246313,2.07334
1426,29257,0.0246372,2.07803
1428,29306,0.0246372,2.08301
1430,29352,0.024648,2.0875
1432,29401,0.024648,2.09238
1434,29449,0.0246568,2.09727
1436,29497,0.0246568,2.10205
1438,29544,0.0246519,2.10674
1440,29592,0.0246519,2.11152
1442,29684,0.024647,2.1207
1444,29743,0.0246509,2.12666
1446,29793,0.0246509,2.13164
1448,29839,0.0246539,2.13623
1450,29887,0.0246539,2.14102
1452,29935,0.0246598,2.1459
1454,29982,0.0246598,2.15049
1456,30031,0.0246598,2.15537
1458,30078,0.0246598,2.16016
1460,30124,0.0246598,2.16475
1462,30173,0.0246598,2.16963
1464,30220,0.0246637,2.17432
1466,30265,0.0246637,2.17891
1468,30315,0.0246706,2.18379
1470,30363,0.0246706,2.18857
1472,30409,0.0246686,2.19326
1474,30457,0.0246686,2.19805
1476,30569,0.0246539,2.20918
1478,30638,0.0246539,2.21602
1480,30697,0.024647,2.22207
1482,30795,0.02465,2.23184
1484,30842,0.02465,2.23652
1486,30886,0.0246559,2.24092
1488,30930,0.0246559,2.24531
1490,30972,0.0246627,2.24961
1492,31016,0.0246627,2.25391
1494,31061,0.0246666,2.2584
1496,31106,0.0246666,2.26299
1498,31151,0.0246774,2.26738
1500,31200,0.0246774,2.27227
1502,31251,0.0246912,2.27734
1504,31303,0.0246912,2.28262
1506,31354,0.0246863,2.2877
1508,31405,0.0246863,2.29277
1510,31460,0.0246794,2.29834
1512,31510,0.0246804,2.30332
1514,31571,0.0246804,2.30947
1516,31637,0.0246764,2.31602
1518,31686,0.0246764,2.3209
1520,31735,0.0246833,2.32578
1522,31783,0.0246833,2.33057
1524,31894,0.024699,2.3417
1526,31943,0.024699,2.34668
1528,31990,0.0247049,2.35127
1530,32038,0.0247049,2.35605
1532,32086,0.0247157,2.36084
1534,32133,0.0247157,2.365625
1536,32183,0.0247216,2.37061
1538,32233,0.0247216,2.37559
1540,32287,0.0247225,2.38096
1542,32335,0.0247225,2.38584
1544,32383,0.0247216,2.39072
1546,32431,0.0247216,2.39541
1548,32483,0.0247167,2.40059
1550,32533,0.0247167,2.40557
1552,32583,0.0247157,2.41064
1554,32632,0.0247157,2.41543
1556,32679,0.0247157,2.42021
1558,32727,0.0247157,2.425
1560,32776,0.0247206,2.42988
1562,32827,0.0247206,2.43496
1564,32926,0.0247284,2.44414
1566,32980,0.0247294,2.45029
1568,33031,0.0247294,2.45537
1570,33082,0.0247294,2.46055
1572,33134,0.0247294,2.46572
1574,33187,0.0247294,2.471
1576,33236,0.0247304,2.47598
1578,33287,0.0247304,2.48096
1580,33336,0.0247372,2.48594
1582,33386,0.0247372,2.49082
1584,33435,0.0247363,2.4958
1586,33486,0.0247363,2.50088
1588,33541,0.0247274,2.50645
1590,33596,0.0247274,2.51191
1592,33643,0.0247186,2.5166
1594,33692,0.0247186,2.52148
1596,33742,0.0247068,2.52646
1598,33790,0.0247068,2.53135
1600,33844,0.0247078,2.53672
1602,33894,0.0247186,2.5417
1604,33943,0.0247186,2.54658
1606,34032,0.0247157,2.55557
1608,34095,0.0247147,2.56182
1610,34145,0.0247147,2.5668
1612,34195,0.0247157,2.57178
1614,34244,0.0247157,2.57666
1616,34294,0.0247049,2.58174
1618,34343,0.0247049,2.58662
1620,34393,0.024698,2.5916
1622,34443,0.024698,2.59668
1624,34494,0.0246912,2.60166
1626,34544,0.0246912,2.60674
1628,34595,0.0246823,2.61182
1630,34644,0.0246823,2.6167
1632,34694,0.0246843,2.62168
1634,34743,0.0246843,2.62656
1636,34793,0.0246833,2.63164
1638,34842,0.0246823,2.63643
1640,34894,0.0246823,2.6417
1642,34944,0.0246804,2.64668
1644,34993,0.0246804,2.65166
1646,35042,0.0246696,2.65654
1648,35154,0.0246617,2.66768
1650,35207,0.0246617,2.67295
1652,35260,0.024646,2.67832
1654,35310,0.024646,2.6833
1656,35361,0.0246372,2.68838
1658,35410,0.0246372,2.69336
1660,35460,0.0246313,2.69824
1662,35510,0.0246333,2.70332
1664,35560,0.0246333,2.7083
1666,35609,0.0246441,2.71328
1668,35660,0.0246441,2.71826
1670,35710,0.0246519,2.72334
1672,35760,0.0246519,2.72822
1674,35811,0.0246529,2.7334
1676,35860,0.0246529,2.73828
1678,35911,0.024646,2.74336
1680,35961,0.024646,2.74844
1682,36012,0.0246411,2.75352
1684,36062,0.0246411,2.7585
1686,36114,0.0246323,2.76367
1688,36163,0.0246323,2.76855
1690,36267,0.0246147,2.779
1692,36317,0.0246098,2.78398
1694,36370,0.0246029,2.78926
1696,36419,0.0246029,2.79424
1698,36469,0.0245911,2.79922
1700,36519,0.0245911,2.8042
1702,36570,0.0245931,2.80928
1704,36621,0.0245931,2.81445
1706,36671,0.0245892,2.81934
1708,36720,0.0245892,2.82432
1710,36770,0.0245892,2.8292
1712,36820,0.0245892,2.83428
1714,36873,0.0245872,2.83965
1716,36929,0.0245872,2.84521
1718,36979,0.0245813,2.8502
1720,37029,0.0245833,2.85527
1722,37083,0.0245833,2.86055
1724,37133,0.0245862,2.865625
1726,37184,0.0245862,2.8707
1728,37236,0.024596,2.87588
1730,37333,0.0245951,2.88564
1732,37394,0.0245951,2.8917
1734,37444,0.0245892,2.89668
1736,37497,0.0245892,2.90195
1738,37551,0.0245852,2.90742
1740,37602,0.0245754,2.9125
1742,37654,0.0245754,2.91768
1744,37704,0.0245764,2.92275
1746,37756,0.0245764,2.92783
1748,37807,0.0245852,2.93301
1750,37860,0.0245852,2.93828
1752,37911,0.0245862,2.94336
1754,37960,0.0245862,2.94824
1756,38009,0.0245911,2.95322
1758,38060,0.0245911,2.9583
1760,38154,0.0245823,2.96768
1762,38202,0.0245686,2.97256
1764,38253,0.0245686,2.97764
1766,38303,0.0245499,2.98262
1768,38354,0.0245499,2.9877
1770,38456,0.024547,2.99785
1772,38507,0.024549,3.00303
1774,38553,0.024546,3.00752
1776,38638,0.024546,3.01611
1778,38685,0.0245392,3.0208
1780,38735,0.0245392,3.02578
1782,38784,0.0245254,3.03066
1784,38837,0.0245254,3.03604
1786,38888,0.0245215,3.04102
1788,38938,0.0245117,3.04609
1790,38990,0.0245117,3.05127
1792,39046,0.0245166,3.05693
1794,39101,0.0245166,3.0623
1796,39154,0.0245176,3.06768
1798,39204,0.0245176,3.07266
1800,39254,0.0245303,3.07764
1802,39306,0.0245303,3.08291
1804,39358,0.0245578,3.08799
1806,39408,0.0245578,3.09307
1808,39461,0.0245803,3.09834
1810,39513,0.0245882,3.10361
1812,39626,0.0245784,3.11494
1814,39677,0.0245784,3.12002
1816,39730,0.0245529,3.12529
1818,39784,0.0245529,3.13066
1820,39835,0.0245401,3.13584
1822,39890,0.0245421,3.14121
1824,39945,0.0245421,3.14678
1826,39995,0.0245441,3.15186
1828,40050,0.0245441,3.15723
1830,40103,0.024548,3.1626
1832,40154,0.024548,3.16768
1834,40204,0.0245421,3.17266
1836,40255,0.0245421,3.17773
1838,40306,0.0245303,3.18291
1840,40358,0.0245303,3.18809
1842,40410,0.0245225,3.19326
1844,40463,0.0245303,3.19854
1846,40512,0.0245303,3.20352
1848,40567,0.0245392,3.20889
1850,40661,0.024546,3.21797
1852,40720,0.024546,3.22422
1854,40773,0.0245519,3.22959
1856,40825,0.0245519,3.23477
1858,40878,0.024546,3.24014
1860,40930,0.024546,3.24531
1862,40982,0.0245382,3.25049
1864,41033,0.0245392,3.25557
1866,41085,0.0245392,3.26074
1868,41135,0.0245421,3.26582
1870,41185,0.0245421,3.2708
1872,41234,0.024549,3.27568
1874,41284,0.024549,3.28066
1876,41334,0.024546,3.28574
1878,41389,0.024546,3.29121
1880,41442,0.0245382,3.29648
1882,41497,0.0245382,3.30195
1884,41552,0.0245333,3.30742
1886,41607,0.0245323,3.31289
1888,41662,0.0245323,3.31846
1890,41764,0.0245264,3.32861
1892,41815,0.0245254,3.33369
1894,41865,0.0245254,3.33877
1896,41919,0.0245195,3.34414
1898,41970,0.0245195,3.34932
1900,42020,0.0245078,3.3543
1902,42071,0.0245078,3.35928
1904,42123,0.0245195,3.36455
1906,42176,0.0245244,3.36992
1908,42229,0.0245244,3.3752
1910,42283,0.0245284,3.38057
1912,42338,0.0245284,3.38604
1914,42393,0.0245254,3.3916
1916,42442,0.0245254,3.39639
1918,42496,0.0245117,3.40186
1920,42546,0.0245117,3.40684
1922,42602,0.0245058,3.4125
1924,42654,0.0244931,3.41768
1926,42706,0.0244931,3.42285
1928,42762,0.024494,3.42842
1930,42813,0.024494,3.43359
1932,42920,0.0244931,3.44424
1934,42974,0.0244921,3.44971
1936,43028,0.0244999,3.45508
1938,43078,0.0244999,3.46006
1940,43131,0.0245009,3.46533
1942,43184,0.0245009,3.4707
1944,43238,0.024497,3.47607
1946,43290,0.024497,3.48125
1948,43344,0.024494,3.48672
1950,43398,0.024494,3.49209
1952,43449,0.0244803,3.49717
1954,43501,0.0244715,3.50234
1956,43556,0.0244715,3.50781
1958,43611,0.0244617,3.51338
1960,43663,0.0244617,3.51855
1962,43718,0.024444,3.52412
1964,43770,0.024444,3.5293
1966,43823,0.024445,3.53457
1968,43880,0.024445,3.54023
1970,43932,0.0244421,3.54551
1972,44035,0.024443,3.55566
1974,44096,0.0244499,3.56191
1976,44150,0.0244499,3.56729
1978,44202,0.0244421,3.57246
1980,44255,0.0244421,3.57773
1982,44307,0.0244264,3.58301
1984,44360,0.0244185,3.58828
1986,44415,0.0244185,3.59375
1988,44469,0.0244146,3.59912
1990,44525,0.0244146,3.60469
1992,44580,0.0244146,3.61025
1994,44633,0.0244146,3.61553
1996,44684,0.0244195,3.62061
1998,44735,0.0244195,3.62578
2000,44788,0.0244215,3.63105
2002,44842,0.0244225,3.63643
2004,44898,0.0244225,3.64199
2006,44952,0.0244244,3.64746
2008,45005,0.0244244,3.65273
2010,45057,0.0244234,3.65801
2012,45111,0.0244234,3.66328
2014,45221,0.0244058,3.67432
2016,45274,0.0244058,3.67959
2018,45327,0.024396,3.68496
2020,45381,0.024396,3.69033
2022,45435,0.024397,3.6958
2024,45487,0.024397,3.70098
2026,45540,0.0243999,3.70625
2028,45595,0.0244009,3.71172
2030,45646,0.0244009,3.71689
2032,45699,0.0244058,3.72207
2034,45754,0.0244058,3.72764
2036,45807,0.0243999,3.73301
2038,45859,0.0243999,3.73818
2040,45912,0.0243881,3.74346
2042,45963,0.0243881,3.74854
2044,46014,0.0243695,3.75371
2046,46067,0.0243695,3.75889
2048,46119,0.024345,3.76416
2050,46173,0.0243362,3.76953
2052,46227,0.0243362,3.7749
2054,46279,0.0243381,3.78018
2056,46390,0.0243332,3.79121
2058,46442,0.0243332,3.79648
2060,46497,0.0243263,3.80195
2062,46551,0.0243234,3.80732
2064,46604,0.0243234,3.8126
2066,46658,0.0243214,3.81807
2068,46714,0.0243214,3.82363
2070,46766,0.0243313,3.82881
2072,46820,0.0243313,3.83428
2074,46872,0.0243479,3.83945
2076,46924,0.0243479,3.84463
2078,46979,0.0243509,3.8501
2080,47034,0.0243469,3.85566
2082,47089,0.0243469,3.86113
2084,47145,0.024346,3.8667
2086,47197,0.024346,3.87197
2088,47248,0.024345,3.87705
2090,47303,0.024345,3.88252
2092,47360,0.0243381,3.88828
2094,47414,0.0243362,3.89365
2096,47470,0.0243362,3.89922
2098,47592,0.0243371,3.91143
2100,47651,0.0243273,3.91729
2102,47706,0.0243214,3.92285
2104,47761,0.0243214,3.92842
2106,47814,0.0243195,3.93359
2108,47865,0.0243195,3.93877
2110,47919,0.0243175,3.94414
2112,47974,0.0243195,3.94971
2114,48030,0.0243195,3.95527
2116,48086,0.0243224,3.96084
2118,48140,0.0243224,3.96631
2120,48192,0.0243175,3.97148
2122,48246,0.0243175,3.97686
2124,48297,0.0243107,3.98203
2126,48350,0.0243107,3.9873
2128,48406,0.0243048,3.99287
2130,48462,0.0243038,3.99844
2132,48515,0.0243038,4.00371
2134,48571,0.0242901,4.009375
2136,48622,0.0242901,4.01436
2138,48726,0.0242773,4.0248
2140,48779,0.0242705,4.03008
2142,48834,0.0242606,4.03564
2144,48885,0.0242606,4.04082
2146,48940,0.0242636,4.04629
2148,48997,0.0242636,4.05195
2150,49050,0.0242714,4.05723
2152,49102,0.0242714,4.0624
2154,49153,0.0242783,4.06748
2156,49203,0.0242783,4.07256
2158,49256,0.0242832,4.07783
2160,49306,0.0242803,4.08291
2162,49361,0.0242803,4.08838
2164,49413,0.0242705,4.09355
2166,49469,0.0242705,4.09912
2168,49521,0.0242528,4.10439
2170,49576,0.0242528,4.10986
2172,49629,0.024244,4.11514
2174,49680,0.024244,4.12031
2176,49734,0.0242361,4.12559
2178,49837,0.0242312,4.13604
2180,49890,0.0242381,4.14121
2182,49949,0.0242381,4.14707
2184,50003,0.0242479,4.15254
2186,50056,0.0242479,4.15791
2188,50113,0.0242538,4.16348
2190,50167,0.024244,4.16895
2192,50262,0.0242381,4.17852
2194,50317,0.0242381,4.18389
2196,50377,0.0242381,4.18994
2198,50433,0.0242381,4.19551
2200,50487,0.024242,4.20088
2202,50538,0.024242,4.20605
2204,50596,0.0242548,4.21191
2206,50652,0.0242616,4.21738
2208,50707,0.0242616,4.22305
2210,50763,0.0242518,4.22861
2212,50820,0.0242518,4.23428
2214,50873,0.0242459,4.23945
2216,50976,0.0242332,4.2499
2218,51039,0.0242185,4.25615
2220,51092,0.0242185,4.26143
2222,51155,0.0242116,4.26768
2224,51209,0.0242116,4.27314
2226,51262,0.0242106,4.27842
2228,51314,0.0242253,4.28359
2230,51367,0.0242253,4.28896
2232,51421,0.0242381,4.29443
2234,51480,0.0242381,4.30029
2236,51541,0.024242,4.30635
2238,51597,0.0242479,4.31191
2240,51652,0.0242479,4.31738
2242,51708,0.0242499,4.32305
2244,51764,0.0242499,4.32861
2246,51820,0.024245,4.33428
2248,51875,0.024245,4.33975
2250,51928,0.0242469,4.34502
2252,51983,0.0242489,4.35049
2254,52037,0.0242489,4.35586
2256,52091,0.0242508,4.36133
2258,52205,0.0242538,4.37275
2260,52258,0.0242479,4.378125
2262,52313,0.0242479,4.3835
2264,52368,0.0242401,4.38896
2266,52423,0.0242401,4.39453
2268,52477,0.0242214,4.3999
2270,52529,0.0242214,4.40518
2272,52587,0.0242175,4.41094
2274,52640,0.0242175,4.41621
2276,52696,0.0242175,4.42178
2278,52750,0.0242214,4.42715
2280,52803,0.0242214,4.43252
2282,52856,0.0242273,4.43789
2284,52912,0.0242273,4.44346
2286,52965,0.0242224,4.44873
2288,53021,0.0242195,4.4543
2290,53073,0.0242195,4.45957
2292,53127,0.0242146,4.46494
2294,53181,0.0242146,4.47031
2296,53235,0.0242155,4.47568
2298,53301,0.0242332,4.48125
2300,53402,0.024241,4.49229
2302,53455,0.024241,4.49775
2304,53510,0.0242381,4.50322
2306,53564,0.0242381,4.50869
2308,53619,0.024243,4.51416
2310,53673,0.024243,4.51953
2312,53729,0.0242342,4.5251
2314,53784,0.0242283,4.53057
2316,53838,0.0242283,4.53604
2318,53896,0.0242293,4.54189
2320,53949,0.0242293,4.54717
2322,54005,0.0242204,4.55273
2324,54059,0.0242204,4.5582
2326,54111,0.0242047,4.56338
2328,54165,0.0241979,4.56875
2330,54229,0.0241979,4.5752
2332,54290,0.0241998,4.58125
2334,54348,0.0241998,4.58711
2336,54413,0.0241998,4.59355
2338,54469,0.0242018,4.59912
2340,54571,0.0242047,4.60928
2342,54629,0.0242047,4.61514
2344,54686,0.0242136,4.6208
2346,54742,0.0242214,4.62646
2348,54799,0.0242214,4.63213
2350,54852,0.0242214,4.6374
2352,54910,0.0242214,4.64316
2354,54965,0.0242077,4.64873
2356,55018,0.0241861,4.654
2358,55074,0.0241861,4.65957
2360,55130,0.0241743,4.66523
2362,55186,0.0241743,4.6708
2364,55241,0.0241734,4.67627
2366,55297,0.0241734,4.68193
2368,55354,0.0241949,4.6877
2370,55410,0.0242008,4.69316
2372,55464,0.0242008,4.69863
2374,55522,0.0242018,4.70439
2376,55575,0.0242018,4.70977
2378,55633,0.0241998,4.71553
2380,55746,0.024194,4.72607
2382,55804,0.0241989,4.73271
2384,55862,0.0241989,4.73838
2386,55918,0.0241959,4.74404
2388,55974,0.0241891,4.74961
2390,56031,0.0241891,4.75527
2392,56087,0.0241812,4.76094
2394,56144,0.0241812,4.7666
2396,56200,0.0241743,4.77227
2398,56254,0.0241675,4.77764
2400,56311,0.0241675,4.7833
2402,56364,0.0241694,4.78857
2404,56420,0.0241694,4.79414
2406,56475,0.0241675,4.79971
2408,56531,0.0241675,4.80527
2410,56589,0.0241636,4.81113
2412,56646,0.0241724,4.8168
2414,56702,0.0241724,4.82246
2416,56756,0.0241743,4.82783
2418,56813,0.0241743,4.8335
2420,56919,0.0241734,4.84414
2422,56982,0.0241734,4.85039
2424,57037,0.0241743,4.85586
2426,57092,0.0241743,4.86143
2428,57148,0.0241763,4.86699
2430,57202,0.0241763,4.87246
2432,57260,0.0241832,4.87822
2434,57317,0.0241832,4.88389
2436,57374,0.0241832,4.88965
2438,57431,0.0241753,4.89531
2440,57490,0.0241753,4.90117
2442,57547,0.0241812,4.90693
2444,57602,0.0241802,4.9123
2446,57659,0.0241802,4.91816
2448,57715,0.0241685,4.92373
2450,57774,0.0241685,4.92959
2452,57832,0.0241685,4.93535
2454,57889,0.0241675,4.94111
2456,57950,0.0241675,4.94717
2458,58013,0.0241714,4.95352
2460,58118,0.024194,4.96396
2462,58185,0.0242087,4.97061
2464,58240,0.0242087,4.97627
2466,58297,0.0242038,4.98184
2468,58354,0.0242018,4.9876
2470,58501,0.0241998,4.99854
2472,58558,0.0241881,4.9999
2473,58588,0.0241881,5.0