File: tensile_tests/04.03.25_BslA.csv
,Time,Force (Newtons),Distance (millimeters)
0,8,0.000589379,0.0
2,39,0.00060605,0.0
4,67,0.00060605,0.0
6,93,0.00060605,0.0
8,123,0.000876714,0.0
10,153,0.000876714,0.0
12,182,0.000876714,0.0
14,210,0.00108658,0.0
16,239,0.00108658,0.0
18,266,0.00108658,0.0
20,294,0.00108658,0.0
22,323,0.00121308,0.0
24,353,0.00121308,0.0
26,383,0.00121308,0.0
28,412,0.00128467,0.0
30,443,0.00128467,0.0
32,473,0.00128467,0.0
34,501,0.00114149,0.0
36,531,0.00114149,0.0
38,559,0.00114149,0.0
40,588,0.00103068,0.0
42,617,0.00103068,0.0
44,646,0.00103068,0.0
46,672,0.00103068,0.0
48,713,0.000975761,0.0
50,743,0.000975761,0.0
52,771,0.000975761,0.0
54,801,0.000926727,0.0
56,830,0.000926727,0.0
58,860,0.000926727,0.0
60,890,0.000854158,0.0
62,921,0.000854158,0.0
64,952,0.000854158,0.0
66,983,0.000716865,0.0
68,1012,0.000716865,0.0
70,1044,0.000716865,0.0
72,1075,0.000540345,0.0
74,1107,0.000540345,0.0
76,1137,0.000540345,0.0
78,1166,0.000291257,0.0
80,1195,0.000291257,0.0
82,1223,0.000291257,0.0
84,1253,0.000186325,0.0
86,1279,0.000186325,0.0
88,1307,0.000186325,0.0
90,1336,0.000186325,0.0
92,1364,0.000225552,0.0
94,1394,0.000225552,0.0
96,1423,0.000225552,0.0
98,1452,0.000208881,0.0
100,1481,0.000208881,0.0
102,1510,0.000208881,0.0
104,1538,0.000114737,0.0
106,1564,0.000114737,0.0
108,1591,0.000114737,0.0
110,1618,0.000114737,0.0
112,1645,-2.25563e-05,0.0
114,1674,-2.25563e-05,0.0
116,1703,-2.25563e-05,0.0
118,1732,-0.000244187,0.0
120,1764,-0.000244187,0.0
122,1791,-0.000244187,0.0
124,1817,-0.000244187,0.0
126,1843,-0.000320678,0.0
128,1942,-0.000326562,0.0
130,1982,-0.000326562,0.0
132,2009,-0.000326562,0.0
134,2036,-0.000265761,0.0
136,2065,-0.000265761,0.0
138,2092,-0.000265761,0.0
140,2118,-0.00016083,0.0
142,2145,-0.00016083,0.0
144,2171,-0.00016083,0.0
146,2197,-0.00016083,0.0
148,2227,-0.000194173,0.0
150,2255,-0.000194173,0.0
152,2282,-0.000194173,0.0
154,2310,-0.000232419,0.0
156,2339,-0.000232419,0.0
158,2366,-0.000232419,0.0
160,2394,-0.000232419,0.0
162,2421,-0.000315775,0.0
164,2448,-0.000315775,0.0
166,2478,-0.000315775,0.0
168,2506,-0.000420706,0.0
170,2533,-0.000420706,0.0
172,2560,-0.000420706,0.0
174,2586,-0.000497198,0.0
176,2613,-0.000497198,0.0
178,2640,-0.000497198,0.0
180,2667,-0.000497198,0.0
182,2693,-0.000591342,0.0
184,2720,-0.000591342,0.0
186,2745,-0.000591342,0.0
188,2771,-0.000591342,0.0
190,2798,-0.000767862,0.0
192,2825,-0.000767862,0.0
194,2855,-0.000767862,0.0
196,2885,-0.000889464,0.0
198,2912,-0.000889464,0.0
200,2940,-0.000889464,0.0
202,2968,-0.000966937,0.0
204,2997,-0.000966937,0.0
206,3025,-0.000966937,0.0
208,3053,-0.000966937,0.0
210,3083,-0.00104441,0.0
212,3112,-0.00104441,0.0
214,3144,-0.00104441,0.0
216,3174,-0.0010601,0.0
218,3202,-0.0010601,0.0
220,3232,-0.0010601,0.0
222,3259,-0.0010601,0.0
224,3288,-0.0010601,0.0
226,3315,-0.0010601,0.0
228,3342,-0.0010601,0.0
230,3368,-0.00106598,0.0
232,3398,-0.00106598,0.0
234,3426,-0.00106598,0.0
236,3457,-0.00103853,0.0
238,3489,-0.00103853,0.0
240,3515,-0.00103853,0.0
242,3544,-0.00102185,0.0
244,3574,-0.00102185,0.0
246,3602,-0.00102185,0.0
248,3630,-0.00102185,0.0
250,3657,-0.00111011,0.0
252,3685,-0.00111011,0.0
254,3712,-0.00111011,0.0
256,3741,-0.00121504,0.0
258,3768,-0.00121504,0.0
260,3796,-0.00121504,0.0
262,3824,-0.00119249,0.0
264,3850,-0.00119249,0.0
266,3878,-0.00119249,0.0
268,3905,-0.00119249,0.0
270,3931,-0.00122093,0.0
272,3958,-0.00122093,0.0
274,3985,-0.00122093,0.0
276,4012,-0.0012425,0.0
278,4037,-0.0012425,0.0
280,4064,-0.0012425,0.0
282,4091,-0.0012425,0.0
284,4118,-0.00130919,0.0
286,4148,-0.00130919,0.0
288,4178,-0.00130919,0.0
290,4209,-0.00140235,0.0
292,4242,-0.00140235,0.0
294,4270,-0.00140235,0.0
296,4301,-0.00142981,0.0
298,4329,-0.00142981,0.0
300,4359,-0.00142981,0.0
302,4389,-0.00142981,0.0
304,4419,-0.00147394,0.0
306,4448,-0.00147394,0.0
308,4476,-0.00147394,0.0
310,4505,-0.00140824,0.0
312,4536,-0.00140824,0.0
314,4568,-0.00140824,0.0
316,4595,-0.00144648,0.0
318,4625,-0.00144648,0.0
320,4654,-0.00144648,0.0
322,4686,-0.0015573,0.0
324,4714,-0.0015573,0.0
326,4742,-0.0015573,0.0
328,4775,-0.00160143,0.0
330,4805,-0.00160143,0.0
332,4835,-0.00160143,0.0
334,4863,-0.00160143,0.0
336,4892,-0.0016181,0.0
338,4923,-0.0016181,0.0
340,4956,-0.0016181,0.0
342,4986,-0.00165144,0.0
344,5018,-0.00165144,0.0
346,5045,-0.00165144,0.0
348,5076,-0.00167302,0.0
350,5106,-0.00167302,0.0
352,5134,-0.00167302,0.0
354,5165,-0.00168969,0.0
356,5193,-0.00168969,0.0
358,5225,-0.00168969,0.0
360,5258,-0.00178873,0.0
362,5290,-0.00178873,0.0
364,5318,-0.00178873,0.0
366,5345,-0.00188288,0.0
368,5376,-0.00188288,0.0
370,5409,-0.00188288,0.0
372,5438,-0.00188288,0.0
374,5471,-0.00197702,0.0
376,5502,-0.00197702,0.0
378,5534,-0.00197702,0.0
380,5564,-0.00202605,0.0
382,5593,-0.00202605,0.0
384,5623,-0.00202605,0.0
386,5654,-0.00204861,0.0
388,5683,-0.00204861,0.0
390,5712,-0.00204861,0.0
392,5740,-0.00207018,0.0
394,5769,-0.00207018,0.0
396,5798,-0.00207018,0.0
398,5827,-0.00200448,0.0
400,5858,-0.00200448,0.0
402,5890,-0.00200448,0.0
404,5919,-0.00196035,0.0
406,5947,-0.00196035,0.0
408,5977,-0.00196035,0.0
410,6008,-0.00196035,0.0
412,6039,-0.00188876,0.0
414,6070,-0.00188876,0.0
416,6101,-0.00188876,0.0
418,6131,-0.00181129,0.0
420,6160,-0.00181129,0.0
422,6190,-0.00181129,0.0
424,6223,-0.00177795,0.0
426,6254,-0.00177795,0.0
428,6286,-0.00177795,0.0
430,6316,-0.0017397,0.0
432,6344,-0.0017397,0.0
434,6375,-0.0017397,0.0
436,6405,-0.00171715,0.0
438,6436,-0.00171715,0.0
440,6467,-0.00171715,0.0
442,6495,-0.00173382,0.0
444,6525,-0.00173382,0.0
446,6556,-0.00173382,0.0
448,6587,-0.0017446,0.0
450,6616,-0.0017446,0.0
452,6643,-0.0017446,0.0
454,6672,-0.0017446,0.0
456,6702,-0.00182208,0.0
458,6731,-0.00182208,0.0
460,6760,-0.00182208,0.0
462,6792,-0.00189955,0.0
464,6822,-0.00189955,0.0
466,6851,-0.00189955,0.0
468,6879,-0.00187699,0.0
470,6908,-0.00187699,0.0
472,6940,-0.00187699,0.0
474,6972,-0.00186032,0.0
476,7002,-0.00186032,0.0
478,7033,-0.00186032,0.0
480,7062,-0.00184954,0.0
482,7093,-0.00184954,0.0
484,7122,-0.00184954,0.0
486,7148,-0.00184954,0.0
488,7177,-0.00184954,0.0
490,7209,-0.00184954,0.0
492,7239,-0.00184954,0.0
494,7271,-0.00182796,0.0
496,7299,-0.00182796,0.0
498,7327,-0.00182796,0.0
500,7425,-0.00177795,0.0001953125
502,7467,-0.00171126,0.000390625
504,7506,-0.00171126,0.0005859375
506,7547,-0.00151905,0.0009765625
508,7584,-0.00151905,0.00126953
510,7622,-0.00151905,0.00175781
512,7666,-0.00097184,0.00224609
514,7711,-0.00097184,0.00292969
516,7755,-0.000100029,0.00371094
518,7799,-0.000100029,0.00449219
520,7835,0.00163673,0.00517578
522,7875,0.00163673,0.00605469
524,7915,0.00446791,0.00703125
526,7955,0.00446791,0.00810547
528,7996,0.00446791,0.00917969
530,8033,0.00856317,0.0102539
532,8072,0.00856317,0.0114258
534,8117,0.0145236,0.0128906
536,8155,0.0145236,0.0141602
538,8227,0.022162,0.0167969
540,8268,0.022162,0.0183594
542,8308,0.0316264,0.0200195
544,8351,0.0316264,0.021875
546,8390,0.0429727,0.0235352
548,8432,0.0429727,0.0254883
550,8473,0.0429727,0.0274414
552,8515,0.0559587,0.0295898
554,8555,0.0559587,0.031543
556,8596,0.0702254,0.0337891
558,8638,0.0702254,0.0360352
560,8679,0.0855346,0.0383789
562,8720,0.0855346,0.0408203
564,8764,0.0855346,0.043457
566,8804,0.102819,0.0458984
568,8847,0.102819,0.0486328
570,8890,0.123095,0.0514648
572,8932,0.123095,0.0542969
574,8973,0.146815,0.0571289
576,9013,0.146815,0.0600586
578,9054,0.146815,0.0629883
580,9096,0.173129,0.0661133
582,9143,0.173129,0.0697266
584,9183,0.201434,0.0728516
586,9224,0.201434,0.0760742
588,9265,0.233499,0.0794922
590,9306,0.233499,0.0830078
592,9352,0.27016,0.0868164
594,9390,0.27016,0.0901367
596,9432,0.27016,0.0938477
598,9473,0.311938,0.09765625
600,9515,0.311938,0.101465
602,9556,0.361293,0.105371
604,9599,0.361293,0.10957
606,9638,0.418009,0.113477
608,9684,0.418009,0.117969
610,9723,0.480372,0.121875
612,9767,0.480372,0.12627
614,9869,0.553452,0.136426
616,9907,0.553452,0.140234
618,9948,0.63635,0.144336
620,9983,0.63635,0.147852
622,10019,0.725104,0.151465
624,10054,0.725104,0.15498
626,10091,0.725104,0.158594
628,10130,0.824492,0.162598
630,10167,0.824492,0.166309
632,10205,0.927258,0.170117
634,10249,0.927258,0.174414
636,10289,0.927258,0.178418
638,10331,1.03196,0.182617
640,10373,1.03196,0.186816
642,10417,1.14478,0.191211
644,10455,1.14478,0.195117
646,10499,1.25728,0.199512
648,10538,1.25728,0.203418
650,10582,1.37599,0.207715
652,10677,1.49771,0.217187
654,10719,1.49771,0.221484
656,10759,1.49771,0.225391
658,10803,1.6127,0.229883
660,10845,1.6127,0.233984
662,10884,1.72559,0.237988
664,10925,1.72559,0.24209
666,10967,1.81041,0.246289
668,11009,1.81041,0.250391
670,11053,1.81041,0.254785
672,11096,1.85596,0.259082
674,11138,1.85596,0.263379
676,11183,1.88113,0.267773
678,11225,1.88113,0.27207
680,11267,1.89565,0.276172
682,11307,1.89565,0.280273
684,11355,1.92243,0.285059
686,11398,1.92243,0.289355
688,11439,1.96405,0.293457
690,11481,1.96405,0.297656
692,11591,2.01114,0.308594
694,11635,2.07375,0.312988
696,11675,2.07375,0.316992
698,11719,2.07375,0.321484
700,11762,2.14704,0.325781
702,11802,2.14704,0.329785
704,11842,2.24327,0.333789
706,11886,2.24327,0.338086
708,11930,2.35712,0.34248
710,11973,2.35712,0.346777
712,12016,2.46342,0.351172
714,12062,2.46342,0.355762
716,12102,2.57013,0.359766
718,12147,2.57013,0.364258
720,12188,2.57013,0.368359
722,12231,2.67041,0.372656
724,12273,2.67041,0.376855
726,12317,2.76507,0.38125
728,12362,2.76507,0.385742
730,12405,2.8636,0.390039
732,12449,2.8636,0.394434
734,12545,2.95425,0.404102
736,12585,3.04531,0.408105
738,12629,3.04531,0.412402
740,12669,3.04531,0.416406
742,12714,3.13385,0.420898
744,12754,3.13385,0.425
746,12797,3.21346,0.429199
748,12837,3.21346,0.433203
750,12879,3.29861,0.437402
752,12920,3.29861,0.441504
754,12966,3.38141,0.446094
756,13006,3.38141,0.450098
758,13051,3.38141,0.45459
760,13093,3.46586,0.458887
762,13136,3.46586,0.463184
764,13183,3.55477,0.467871
766,13226,3.55477,0.472168
768,13269,3.63434,0.476465
770,13312,3.63434,0.480762
772,13400,3.71671,0.489551
774,13447,3.7988,0.494141
776,13489,3.7988,0.4984375
778,13533,3.87625,0.502832
780,13577,3.87625,0.507227
782,13620,3.87625,0.511523
784,13661,3.96046,0.515625
786,13704,3.96046,0.52002
788,13747,4.0362,0.524219
790,13788,4.0362,0.52832
792,13833,4.10887,0.5328125
794,13874,4.10887,0.536914
796,13917,4.18386,0.541211
798,13959,4.18386,0.54541
800,14002,4.18386,0.549707
802,14046,4.25159,0.554199
804,14087,4.25159,0.558203
806,14131,4.32487,0.562695
808,14172,4.32487,0.566699
810,14217,4.39411,0.571191
812,14259,4.39411,0.575488
814,14358,4.45685,0.585352
816,14403,4.52333,0.589746
818,14449,4.52333,0.594336
820,14490,4.58194,0.598535
822,14534,4.58194,0.602832
824,14574,4.58194,0.606934
826,14620,4.6439,0.611523
828,14664,4.6439,0.615918
830,14708,4.70641,0.6203125
832,14754,4.70641,0.624902
834,14802,4.76088,0.629688
836,14845,4.76088,0.634082
838,14889,4.82159,0.638379
840,14932,4.82159,0.642773
842,14974,4.87719,0.646875
844,15017,4.87719,0.65127
846,15091,4.93216,0.658691
848,15138,4.93216,0.663379
850,15183,4.9907,0.667773
852,15279,5.03866,0.677441
854,15324,5.03866,0.681934
856,15368,5.09132,0.686328
858,15411,5.09132,0.690625
860,15455,5.14533,0.69502
862,15499,5.14533,0.699414
864,15540,5.1975,0.703516
866,15586,5.1975,0.708105
868,15634,5.25838,0.712988
870,15681,5.25838,0.717676
872,15724,5.31002,0.721973
874,15769,5.31002,0.726465
876,15811,5.31002,0.730664
878,15854,5.35861,0.734961
880,15900,5.35861,0.739551
882,15947,5.40584,0.744141
884,15987,5.40584,0.748242
886,16032,5.44198,0.752637
888,16073,5.44198,0.756836
890,16116,5.48422,0.761133
892,16275,5.52322,0.777051
894,16318,5.55976,0.781348
896,16362,5.55976,0.785742
898,16404,5.60592,0.789941
900,16449,5.60592,0.794336
902,16490,5.64624,0.798535
904,16536,5.64624,0.803125
906,16583,5.69004,0.8078125
908,16630,5.69004,0.8125
910,16677,5.73346,0.817188
912,16721,5.73346,0.821582
914,16766,5.73346,0.826172
916,16812,5.76321,0.830664
918,16858,5.76321,0.835254
920,16902,5.78455,0.839648
922,16942,5.78455,0.84375
924,16988,5.80307,0.848242
926,17034,5.80307,0.852832
928,17079,5.8304,0.857422
930,17123,5.8304,0.861816
932,17208,5.87134,0.8703125
934,17255,5.91929,0.875
936,17301,5.91929,0.87959
938,17346,5.97138,0.884082
940,17390,5.97138,0.888477
942,17437,6.0164,0.893262
944,17483,6.0164,0.897754
946,17525,6.0164,0.902051
948,17572,6.05366,0.906738
950,17620,6.05366,0.911426
952,17667,6.09205,0.916211
954,17713,6.09205,0.920801
956,17759,6.11628,0.925391
958,17804,6.11628,0.929883
960,17848,6.14187,0.934375
962,17892,6.14187,0.93877
964,17936,6.17332,0.943066
966,17979,6.17332,0.947461
968,18022,6.20461,0.951758
970,18065,6.20461,0.955957
972,18165,6.2493,0.966016
974,18207,6.28933,0.970215
976,18253,6.28933,0.974805
978,18300,6.3241,0.979492
980,18348,6.3241,0.984375
982,18394,6.36501,0.988867
984,18440,6.36501,0.993555
986,18486,6.39991,0.998145
988,18531,6.39991,1.00264
990,18575,6.39991,1.00703
992,18625,6.43849,1.01191
994,18673,6.47687,1.0168
996,18722,6.47687,1.02178
998,18768,6.5053,1.02627
1000,18811,6.5053,1.03057
1002,18855,6.5053,1.03506
1004,18902,6.53762,1.03975
1006,18950,6.53762,1.04443
1008,19000,6.56424,1.04941
1010,19044,6.56424,1.05391
1012,19143,6.59058,1.06387
1014,19190,6.62174,1.06846
1016,19237,6.62174,1.07314
1018,19284,6.64514,1.07793
1020,19331,6.64514,1.08262
1022,19374,6.67363,1.08691
1024,19418,6.67363,1.09131
1026,19464,6.70116,1.0959
1028,19507,6.70116,1.1002
1030,19555,6.72408,1.10498
1032,19602,6.72408,1.10967
1034,19650,6.75274,1.11445
1036,19697,6.75274,1.11924
1038,19742,6.77214,1.12363
1040,19786,6.77214,1.12803
1042,19832,6.79054,1.13271
1044,19877,6.79054,1.13721
1046,19920,6.81029,1.1415
1048,19967,6.81029,1.14619
1050,20017,6.82271,1.15127
1052,20112,6.83798,1.16074
1054,20156,6.83798,1.16514
1056,20201,6.84227,1.16963
1058,20248,6.84227,1.17432
1060,20294,6.83079,1.17891
1062,20340,6.83079,1.1835
1064,20390,6.79468,1.18848
1066,20440,6.79468,1.19346
1068,20489,6.70169,1.19834
1070,20534,6.70169,1.20293
1072,20581,6.53398,1.20762
1074,20629,6.53398,1.2124
1076,20676,6.2686,1.21709
1078,20723,6.2686,1.22178
1080,20769,5.91531,1.22646
1082,20815,5.91531,1.23105
1084,20860,5.91531,1.23545
1086,20908,5.4906,1.24023
1088,20952,5.4906,1.24473
1090,21000,5.03787,1.24951
1092,21105,4.61934,1.25996
1094,21151,4.22519,1.26465
1096,21197,4.22519,1.26924
1098,21242,3.84466,1.27373
1100,21290,3.84466,1.27852
1102,21334,3.84466,1.28291
1104,21379,3.39352,1.2874
1106,21423,3.39352,1.2918
1108,21467,2.86169,1.29619
1110,21515,2.86169,1.30098
1112,21562,2.37292,1.30576
1114,21611,2.37292,1.31055
1116,21660,1.97746,1.31543
1118,21705,1.97746,1.32002
1120,21753,1.74416,1.3248
1122,21800,1.74416,1.32949
1124,21847,1.62523,1.33418
1126,21891,1.62523,1.33857
1128,21938,1.42444,1.34326
1130,21983,1.42444,1.34775
1132,22081,1.14517,1.35264
1134,22130,0.85915,1.3625
1136,22173,0.85915,1.3667
1138,22220,0.601074,1.37139
1140,22266,0.601074,1.37607
1142,22315,0.460532,1.38096
1144,22357,0.460532,1.38516
1146,22402,0.410581,1.38975
1148,22449,0.410581,1.39443
1150,22496,0.379973,1.39912
1152,22541,0.379973,1.40361
1154,22590,0.357462,1.4085
1156,22669,0.340034,1.41641
1158,22723,0.340034,1.42178
1160,22768,0.325724,1.42627
1162,22815,0.325724,1.43096
1164,22863,0.312788,1.43584
1166,22911,0.312788,1.44053
1168,22958,0.301127,1.44531
1170,23002,0.301127,1.44971
1172,23098,0.289918,1.45928
1174,23154,0.278549,1.46484
1176,23201,0.278549,1.46963
1178,23249,0.267373,1.47432
1180,23295,0.267373,1.479
1182,23341,0.256059,1.48359
1184,23390,0.256059,1.48848
1186,23439,0.244614,1.49336
1188,23484,0.244614,1.49785
1190,23532,0.233588,1.50264
1192,23580,0.233588,1.50742
1194,23626,0.223383,1.51201
1196,23675,0.223383,1.51689
1198,23720,0.214752,1.52158
1200,23767,0.214752,1.52617
1202,23816,0.207456,1.53105
1204,23859,0.207456,1.53545
1206,23907,0.20117,1.54014
1208,23957,0.20117,1.54521
1210,24007,0.195795,1.5502
1212,24096,0.195795,1.55908
1214,24150,0.190645,1.56445
1216,24196,0.186015,1.56914
1218,24244,0.186015,1.57383
1220,24291,0.181694,1.57852
1222,24338,0.181694,1.5833
1224,24384,0.177373,1.58789
1226,24432,0.177373,1.59268
1228,24483,0.173322,1.59775
1230,24528,0.173322,1.60225
1232,24574,0.169398,1.60684
1234,24620,0.169398,1.61143
1236,24667,0.169398,1.61621
1238,24717,0.165773,1.62119
1240,24767,0.162295,1.62617
1242,24813,0.162295,1.63076
1244,24859,0.158719,1.63535
1246,24912,0.158719,1.64072
1248,24958,0.155104,1.64521
1250,25005,0.155104,1.6499
1252,25052,0.151319,1.65469
1254,25149,0.147809,1.66436
1256,25196,0.147809,1.66904
1258,25242,0.144906,1.67363
1260,25292,0.144906,1.67871
1262,25337,0.142356,1.6832
1264,25383,0.142356,1.68779
1266,25432,0.140204,1.69268
1268,25479,0.140204,1.69736
1270,25525,0.140204,1.70195
1272,25571,0.138194,1.70664
1274,25618,0.138194,1.71123
1276,25669,0.136087,1.71631
1278,25716,0.134138,1.72109
1280,25766,0.134138,1.72607
1282,25811,0.132063,1.73057
1284,25857,0.132063,1.73516
1286,25903,0.132063,1.73984
1288,25954,0.130011,1.74492
1290,26005,0.128106,1.75
1292,26050,0.128106,1.75449
1294,26150,0.126203,1.76445
1296,26200,0.124519,1.76943
1298,26247,0.124519,1.77422
1300,26297,0.12278,1.7792
1302,26343,0.12278,1.78379
1304,26393,0.120971,1.78877
1306,26442,0.120971,1.79365
1308,26492,0.119127,1.79863
1310,26541,0.119127,1.80361
1312,26591,0.117019,1.80859
1314,26641,0.117019,1.81357
1316,26691,0.115015,1.81855
1318,26740,0.115015,1.82344
1320,26789,0.113189,1.82842
1322,26835,0.113189,1.83301
1324,26884,0.111511,1.83789
1326,26934,0.111511,1.84287
1328,26985,0.110336,1.84795
1330,27035,0.110336,1.85293
1332,27086,0.109348,1.85801
1334,27190,0.10846,1.86846
1336,27240,0.107659,1.87344
1338,27292,0.107659,1.87871
1340,27340,0.106633,1.8835
1342,27390,0.106633,1.88848
1344,27440,0.105545,1.89346
1346,27489,0.105545,1.89834
1348,27537,0.104221,1.90322
1350,27584,0.104221,1.90791
1352,27634,0.102758,1.91289
1354,27682,0.102758,1.91768
1356,27731,0.101241,1.92256
1358,27780,0.101241,1.92744
1360,27834,0.0995738,1.93291
1362,27884,0.0995738,1.93789
1364,27931,0.0980341,1.94248
1366,27977,0.0980341,1.94717
1368,28026,0.0966102,1.95205
1370,28073,0.0966102,1.95674
1372,28123,0.0953304,1.96172
1374,28220,0.094237,1.97148
1376,28277,0.094237,1.97715
1378,28329,0.093172,1.98232
1380,28378,0.093172,1.98721
1382,28425,0.0920246,1.99199
1384,28472,0.0920246,1.99668
1386,28523,0.0908655,2.00176
1388,28574,0.089519,2.00684
1390,28622,0.089519,2.01162
1392,28670,0.08815,2.0165
1394,28806,0.0868036,2.02998
1396,28857,0.0851531,2.03516
1398,28907,0.0851531,2.04023
1400,28954,0.083487,2.04482
1402,29002,0.083487,2.04971
1404,29051,0.0818698,2.05449
1406,29103,0.0818698,2.05967
1408,29152,0.0802635,2.06465
1410,29202,0.0802635,2.06973
1412,29251,0.0789671,2.07451
1414,29301,0.0789671,2.07959
1416,29405,0.0776804,2.08994
1418,29456,0.0761741,2.09502
1420,29505,0.0761741,2.1
1422,29555,0.0745737,2.10488
1424,29603,0.0745737,2.10967
1426,29650,0.0728575,2.11445
1428,29703,0.0728575,2.11973
1430,29752,0.071158,2.12471
1432,29802,0.071158,2.12969
1434,29853,0.0696566,2.13477
1436,29902,0.0696566,2.13965
1438,29953,0.0683102,2.14473
1440,30001,0.0670079,2.14951
1442,30050,0.0670079,2.15449
1444,30100,0.065887,2.159375
1446,30148,0.065887,2.16426
1448,30197,0.0647337,2.16914
1450,30249,0.0647337,2.17432
1452,30297,0.0634814,2.1792
1454,30393,0.0622173,2.18418
1456,30443,0.0622173,2.19375
1458,30494,0.0608434,2.19893
1460,30545,0.0608434,2.204
1462,30597,0.0594244,2.20918
1464,30646,0.0594244,2.21406
1466,30734,0.0581279,2.22275
1468,30783,0.0570129,2.22773
1470,30832,0.0570129,2.23262
1472,30885,0.0557989,2.23789
1474,30936,0.0557989,2.24307
1476,30987,0.0542533,2.24814
1478,31037,0.0542533,2.253125
1480,31086,0.0523057,2.25801
1482,31140,0.0523057,2.26348
1484,31193,0.049855,2.26875
1486,31244,0.0473602,2.27383
1488,31297,0.0473602,2.2791
1490,31348,0.0451528,2.28428
1492,31400,0.0451528,2.28936
1494,31488,0.0431218,2.29824
1496,31544,0.0413115,2.30381
1498,31593,0.0413115,2.30869
1500,31643,0.0396395,2.31367
1502,31689,0.0396395,2.31836
1504,31739,0.0381273,2.32334
1506,31790,0.0381273,2.32832
1508,31840,0.0369024,2.3334
1510,31892,0.0369024,2.33857
1512,31942,0.0358374,2.34365
1514,31993,0.0358374,2.34873
1516,32042,0.0347607,2.35361
1518,32091,0.0347607,2.35859
1520,32143,0.0336407,2.36367
1522,32195,0.0324208,2.36895
1524,32246,0.0324208,2.37402
1526,32299,0.0312342,2.3793
1528,32350,0.0312342,2.384375
1530,32400,0.0300927,2.38945
1532,32447,0.0300927,2.39404
1534,32536,0.0288335,2.40303
1536,32598,0.0274929,2.40918
1538,32649,0.0274929,2.41436
1540,32703,0.0260357,2.41973
1542,32753,0.0260357,2.42471
1544,32801,0.0246725,2.42959
1546,32850,0.0246725,2.43447
1548,32903,0.0234477,2.43975
1550,32954,0.022267,2.44482
1552,33003,0.022267,2.44971
1554,33055,0.021201,2.45488
1556,33104,0.021201,2.45977
1558,33157,0.020186,2.46504
1560,33212,0.020186,2.47061
1562,33260,0.019275,2.47549
1564,33311,0.019275,2.48047
1566,33359,0.0185748,2.48535
1568,33412,0.0185748,2.490625
1570,33467,0.0177912,2.49609
1572,33519,0.0177912,2.50127
1574,33619,0.0159858,2.51133
1576,33671,0.0159858,2.5165
1578,33722,0.0149316,2.52168
1580,33772,0.0149316,2.52656
1582,33824,0.0141314,2.53184
1584,33877,0.0141314,2.53711
1586,33928,0.0133812,2.54229
1588,33979,0.0133812,2.54736
1590,34028,0.0126692,2.55225
1592,34079,0.0126692,2.55732
1594,34129,0.0120288,2.5623
1596,34175,0.0120288,2.56689
1598,34225,0.0113728,2.57188
1600,34276,0.0113728,2.57705
1602,34329,0.010804,2.58232
1604,34380,0.0103186,2.5874
1606,34434,0.0103186,2.59287
1608,34488,0.00982136,2.59814
1610,34535,0.00982136,2.60293
1612,34643,0.00924767,2.61377
1614,34694,0.00867888,2.61885
1616,34746,0.00867888,2.62402
1618,34798,0.00824837,2.6293
1620,34851,0.00824837,2.63447
1622,34902,0.00780707,2.63965
1624,34951,0.00735499,2.64453
1626,35002,0.00735499,2.64961
1628,35054,0.00685779,2.65488
1630,35102,0.00685779,2.65957
1632,35152,0.00625664,2.66465
1634,35205,0.00625664,2.66992
1636,35257,0.00573199,2.6751
1638,35310,0.00573199,2.68047
1640,35364,0.00529069,2.68584
1642,35412,0.00529069,2.690625
1644,35460,0.00476603,2.69541
1646,35510,0.00476603,2.70039
1648,35560,0.00431983,2.70537
1650,35671,0.0038393,2.7165
1652,35754,0.00323227,2.7248
1654,35803,0.00323227,2.72969
1656,35847,0.00278509,2.73408
1658,35891,0.00278509,2.73857
1660,35975,0.00228887,2.74697
1662,36022,0.00186915,2.75166
1664,36072,0.00186915,2.75664
1666,36124,0.00169263,2.76182
1668,36173,0.00169263,2.7667
1670,36222,0.00152689,2.77158
1672,36274,0.00152689,2.77676
1674,36327,0.00140039,2.78213
1676,36379,0.00118562,2.7873
1678,36429,0.00118562,2.79229
1680,36478,0.000843371,2.79727
1682,36529,0.000843371,2.80234
1684,36577,0.000368729,2.80713
1686,36629,0.000368729,2.8123
1688,36686,-0.000144159,2.81797
1690,36795,-0.000525637,2.82891
1692,36852,-0.000525637,2.83457
1694,36905,-0.00083945,2.83984
1696,36958,-0.000988511,2.84521
1698,37012,-0.000988511,2.85068
1700,37065,-0.00109344,2.85586
1702,37119,-0.00109344,2.86133
1704,37174,-0.0013033,2.8668
1706,37226,-0.0013033,2.87207
1708,37281,-0.00150728,2.87744
1710,37336,-0.0017446,2.88311
1712,37389,-0.0017446,2.88828
1714,37439,-0.00199271,2.89326
1716,37493,-0.00199271,2.89863
1718,37549,-0.00219179,2.9043
1720,37603,-0.00219179,2.90967
1722,37654,-0.00233496,2.91475
1724,37705,-0.00233496,2.91992
1726,37757,-0.00246735,2.9251
1728,37813,-0.00260563,2.93066
1730,37918,-0.00278803,2.94121
1732,37970,-0.00278803,2.94648
1734,38025,-0.0030587,2.95186
1736,38077,-0.0030587,2.95713
1738,38131,-0.0033676,2.9625
1740,38180,-0.0033676,2.96748
1742,38227,-0.00370397,2.97217
1744,38285,-0.00399131,2.97783
1746,38337,-0.00399131,2.98311
1748,38392,-0.00436592,2.98857
1750,38444,-0.00436592,2.99375
1752,38497,-0.00474152,2.99912
1754,38553,-0.00474152,3.00469
1756,38606,-0.00502297,3.00996
1758,38657,-0.00502297,3.01514
1760,38714,-0.00530442,3.0207
1762,38763,-0.00548682,3.02568
1764,38817,-0.00548682,3.03115
1766,38870,-0.0055692,3.03643
1768,38985,-0.00566824,3.04785
1770,39036,-0.00566824,3.05303
1772,39123,-0.00571826,3.06172
1774,39173,-0.00570159,3.0667
1776,39230,-0.00570159,3.07236
1778,39286,-0.00579573,3.07793
1780,39339,-0.00591145,3.0833
1782,39395,-0.00591145,3.08896
1784,39451,-0.00600559,3.09443
1786,39504,-0.00600559,3.0998
1788,39553,-0.00609385,3.10479
1790,39603,-0.00609385,3.10967
1792,39654,-0.0060713,3.11475
1794,39707,-0.0060713,3.12012
1796,39758,-0.00602717,3.1252
1798,39810,-0.00603894,3.13037
1800,39866,-0.00603894,3.13594
1802,39922,-0.00621546,3.1415
1804,39974,-0.00621546,3.14678
1806,40024,-0.00646847,3.15176
1808,40121,-0.00683327,3.16143
1810,40171,-0.00683327,3.1665
1812,40226,-0.0072579,3.17207
1814,40279,-0.0072579,3.17725
1816,40331,-0.00748444,3.18242
1818,40383,-0.00770509,3.1877
1820,40435,-0.00770509,3.19287
1822,40488,-0.00774333,3.19814
1824,40546,-0.00774333,3.204
1826,40598,-0.0077551,3.20918
1828,40654,-0.0077551,3.21475
1830,40711,-0.00776,3.22051
1832,40762,-0.00762271,3.22559
1834,40818,-0.00762271,3.23115
1836,40872,-0.00760604,3.23652
1838,40925,-0.00760604,3.24189
1840,40979,-0.00757858,3.24727
1842,41036,-0.00757858,3.25303
1844,41091,-0.00753445,3.2585
1846,41147,-0.00762271,3.26416
1848,41246,-0.0076335,3.27402
1850,41300,-0.0076335,3.27939
1852,41352,-0.00755602,3.28457
1854,41404,-0.00755602,3.28975
1856,41458,-0.00746776,3.29521
1858,41514,-0.00746776,3.30078
1860,41567,-0.00736283,3.30605
1862,41621,-0.00728046,3.31143
1864,41673,-0.00728046,3.3167
1866,41728,-0.00724712,3.32217
1868,41783,-0.00724712,3.32773
1870,41837,-0.00730203,3.33301
1872,41891,-0.00730203,3.33848
1874,41947,-0.00734616,3.34404
1876,41999,-0.00742952,3.34932
1878,42053,-0.00742952,3.35469
1880,42106,-0.00745698,3.35996
1882,42163,-0.00745698,3.36572
1884,42219,-0.00747365,3.37129
1886,42274,-0.00747365,3.37676
1888,42374,-0.00749032,3.38682
1890,42435,-0.00743442,3.39287
1892,42488,-0.00740206,3.39814
1894,42541,-0.00740206,3.40342
1896,42598,-0.00734126,3.40918
1898,42653,-0.00734126,3.41465
1900,42706,-0.00736283,3.42002
1902,42759,-0.00743442,3.4252
1904,42813,-0.00743442,3.43066
1906,42870,-0.00753445,3.43633
1908,42925,-0.00753445,3.44189
1910,42984,-0.00760015,3.44775
1912,43037,-0.00760015,3.45303
1914,43089,-0.00750601,3.4583
1916,43147,-0.00741285,3.46406
1918,43200,-0.00741285,3.46934
1920,43255,-0.00735205,3.4748
1922,43309,-0.00735205,3.48027
1924,43360,-0.0073187,3.48535
1926,43412,-0.0073187,3.49053
1928,43522,-0.00739029,3.50156
1930,43577,-0.00739029,3.50703
1932,43635,-0.00743442,3.51289
1934,43687,-0.00743442,3.51807
1936,43738,-0.00742952,3.52314
1938,43791,-0.00742952,3.52842
1940,43850,-0.00746188,3.53438
1942,43905,-0.00737951,3.53984
1944,43957,-0.00737951,3.54502
1946,44010,-0.00720887,3.55039
1948,44063,-0.00720887,3.55566
1950,44118,-0.00709217,3.56113
1952,44176,-0.00709217,3.56699
1954,44241,-0.00699312,3.57344
1956,44304,-0.00694899,3.57979
1958,44370,-0.00694899,3.58643
1960,44425,-0.00698724,3.59189
1962,44495,-0.00705392,3.59883
1964,44641,-0.0071363,3.61348
1966,44700,-0.00721377,3.61934
1968,44752,-0.00721377,3.62461
1970,44808,-0.0071922,3.63018
1972,44863,-0.00706471,3.63564
1974,44915,-0.00706471,3.64092
1976,44970,-0.00692742,3.64639
1978,45024,-0.00692742,3.65176
1980,45080,-0.00678326,3.65732
1982,45132,-0.00678326,3.6626
1984,45188,-0.00671167,3.66816
1986,45246,-0.00672834,3.67393
1988,45303,-0.00672834,3.67969
1990,45356,-0.006695,3.68496
1992,45411,-0.006695,3.69043
1994,45463,-0.00664008,3.6957
1996,45515,-0.00664008,3.70088
1998,45569,-0.0066342,3.70625
2000,45623,-0.00657928,3.71162
2002,45680,-0.00657928,3.71738
2004,45737,-0.0065685,3.72305
2006,45796,-0.0065685,3.729
2008,45850,-0.00662341,3.734375
2010,45906,-0.00666754,3.73994
2012,45996,-0.0068166,3.74893
2014,46055,-0.0068166,3.75488
2016,46116,-0.00694311,3.76094
2018,46174,-0.00694311,3.7668
2020,46221,-0.00695488,3.77148
2022,46274,-0.00695488,3.77676
2024,46321,-0.00694899,3.78145
2026,46366,-0.00694899,3.78604
2028,46410,-0.00694899,3.79033
2030,46456,-0.00694899,3.79502
2032,46506,-0.00692742,3.7999
2034,46557,-0.00692742,3.80508
2036,46604,-0.00695978,3.80977
2038,46651,-0.00695978,3.81445
2040,46697,-0.00701568,3.81904
2042,46744,-0.00701568,3.82373
2044,46796,-0.00704804,3.82891
2046,46848,-0.00704804,3.83418
2048,46899,-0.00703725,3.83936
2050,46946,-0.00697155,3.84395
2052,46995,-0.00697155,3.84893
2054,47052,-0.00698724,3.85449
2056,47105,-0.00698724,3.85986
2058,47160,-0.00701568,3.86533
2060,47212,-0.00701568,3.87051
2062,47266,-0.0070706,3.87588
2064,47317,-0.0070706,3.88105
2066,47368,-0.00711473,3.88613
2068,47416,-0.00711473,3.89092
2070,47469,-0.00697645,3.89629
2072,47530,-0.00678914,3.90234
2074,47584,-0.00678914,3.90771
2076,47633,-0.006695,3.9126
2078,47686,-0.006695,3.91797
2080,47738,-0.00673913,3.92314
2082,47790,-0.00673913,3.92832
2084,47840,-0.00686662,3.9333
2086,47891,-0.00686662,3.93848
2088,47941,-0.00691565,3.94346
2090,47992,-0.0068774,3.94854
2092,48044,-0.0068774,3.95371
2094,48097,-0.00678914,3.95908
2096,48232,-0.0067558,3.97246
2098,48319,-0.00680582,3.98115
2100,48376,-0.00685485,3.98691
2102,48428,-0.00685485,3.99209
2104,48482,-0.0068166,3.99756
2106,48539,-0.0068166,4.00322
2108,48596,-0.00676169,4.00889
2110,48649,-0.00676169,4.01426
2112,48706,-0.006695,4.01992
2114,48761,-0.00662341,4.02549
2116,48817,-0.00662341,4.03105
2118,48870,-0.00658517,4.03633
2120,48924,-0.00658517,4.0418
2122,48978,-0.00656261,4.04707
2124,49033,-0.00656261,4.05254
2126,49088,-0.00649102,4.05811
2128,49147,-0.00641355,4.06406
2130,49202,-0.00641355,4.06953
2132,49255,-0.00643022,4.0749
2134,49311,-0.00643022,4.08047
2136,49366,-0.00639198,4.08594
2138,49421,-0.00641943,4.09141
2140,49474,-0.00641943,4.09678
2142,49528,-0.00650181,4.10215
2144,49583,-0.00650181,4.10771
2146,49637,-0.00649691,4.11309
2148,49690,-0.00649691,4.11836
2150,49745,-0.00649102,4.12383
2152,49801,-0.00640865,4.12939
2154,49854,-0.00640865,4.13477
2156,49907,-0.0063753,4.14004
2158,49963,-0.0063753,4.14561
2160,50015,-0.00638021,4.15088
2162,50068,-0.00638021,4.15615
2164,50121,-0.00635275,4.16143
2166,50174,-0.00635275,4.1668
2168,50231,-0.00633608,4.17246
2170,50288,-0.00627626,4.178125
2172,50340,-0.00627626,4.1834
2174,50392,-0.00618702,4.18857
2176,50445,-0.00618702,4.19385
2178,50498,-0.00614289,4.19912
2180,50554,-0.00614289,4.20469
2182,50610,-0.00607718,4.21025
2184,50736,-0.00605463,4.22295
2186,50796,-0.00603894,4.22891
2188,50850,-0.00605463,4.23428
2190,50902,-0.00605463,4.23955
2192,50958,-0.0061321,4.24512
2194,51066,-0.00616544,4.25508
2196,51120,-0.00616544,4.26143
2198,51174,-0.00611052,4.2667
2200,51234,-0.00600559,4.27266
2202,51289,-0.00600559,4.27822
2204,51344,-0.00596637,4.28379
2206,51403,-0.00596637,4.28965
2208,51456,-0.00594479,4.29492
2210,51511,-0.00594479,4.30049
2212,51567,-0.00601638,4.30605
2214,51620,-0.00609385,4.31143
2216,51672,-0.00609385,4.3166
2218,51733,-0.00608307,4.32256
2220,51787,-0.00608307,4.32803
2222,51844,-0.00604972,4.33369
2224,51905,-0.00603305,4.33984
2226,51963,-0.00603305,4.34561
2228,52019,-0.00601638,4.35117
2230,52127,-0.0060105,4.36172
2232,52179,-0.0060105,4.36729
2234,52249,-0.00596146,4.37422
2236,52366,-0.00591145,4.38594
2238,52421,-0.00587811,4.39141
2240,52477,-0.00590066,4.39668
2242,52535,-0.00590066,4.40273
2244,52591,-0.00594479,4.4084
2246,52644,-0.00594479,4.41367
2248,52697,-0.0059497,4.41904
2250,52754,-0.00592224,4.42471
2252,52808,-0.00592224,4.43018
2254,52862,-0.00583398,4.43555
2256,52916,-0.00583398,4.44092
2258,52970,-0.00576827,4.44639
2260,53028,-0.00576827,4.45215
2262,53086,-0.00572414,4.45791
2264,53143,-0.00571826,4.46357
2266,53197,-0.00571826,4.46904
2268,53257,-0.00580652,4.475
2270,53313,-0.00580652,4.48057
2272,53367,-0.00586144,4.48594
2274,53419,-0.00583986,4.49121
2276,53473,-0.00583986,4.49658
2278,53536,-0.0058124,4.50293
2280,53592,-0.0058124,4.5085
2282,53649,-0.00577906,4.51416
2284,53705,-0.00568492,4.51982
2286,53758,-0.00568492,4.5251
2288,53816,-0.00566824,4.53096
2290,53871,-0.00566824,4.53643
2292,53928,-0.00563,4.54219
2294,53984,-0.00563,4.54766
2296,54040,-0.00559175,4.55332
2298,54094,-0.0056908,4.55879
2300,54156,-0.0056908,4.56484
2302,54214,-0.00574081,4.5707
2304,54272,-0.00574081,4.57646
2306,54328,-0.00578494,4.58213
2308,54388,-0.00576827,4.58809
2310,54448,-0.00576827,4.59414
2312,54505,-0.00568001,4.5998
2314,54564,-0.00563,4.60566
2316,54619,-0.00563,4.61113
2318,54677,-0.0055692,4.6168
2320,54735,-0.0055692,4.62285
2322,54789,-0.0055692,4.62822
2324,54849,-0.0055692,4.63418
2326,54922,-0.0055692,4.6416
2328,54980,-0.00557998,4.64727
2330,55037,-0.00557998,4.65293
2332,55092,-0.00557998,4.6585
2334,55149,-0.00553585,4.66426
2336,55207,-0.00553585,4.67002
2338,55261,-0.00555253,4.67549
2340,55319,-0.00555253,4.68115
2342,55374,-0.00560842,4.68662
2344,55432,-0.00570159,4.69258
2346,55541,-0.00570747,4.70332
2348,55601,-0.00570747,4.709375
2350,55655,-0.00564079,4.71475
2352,55711,-0.00552507,4.72041
2354,55771,-0.00552507,4.72637
2356,55828,-0.00538189,4.73213
2358,55888,-0.00538189,4.73809
2360,55945,-0.0053103,4.74385
2362,56007,-0.00528775,4.75
2364,56062,-0.00528775,4.75547
2366,56115,-0.00528775,4.76084
2368,56173,-0.00528775,4.7666
2370,56238,-0.00532697,4.77305
2372,56296,-0.00540935,4.77891
2374,56356,-0.00540935,4.78486
2376,56413,-0.00547603,4.790625
2378,56470,-0.00544269,4.79639
2380,56528,-0.00544269,4.80215
2382,56584,-0.00538189,4.80771
2384,56639,-0.00538189,4.81328
2386,56698,-0.00537601,4.81904
2388,56755,-0.00538679,4.8248
2390,56809,-0.00538679,4.83018
2392,56870,-0.00542602,4.83633
2394,56927,-0.00542602,4.8418
2396,56983,-0.00545936,4.84756
2398,57038,-0.00549172,4.85303
2400,57092,-0.00549172,4.8585
2402,57158,-0.00547603,4.86504
2404,57216,-0.00547603,4.8709
2406,57281,-0.00556429,4.87676
2408,57338,-0.00564079,4.8832
2410,57393,-0.00564079,4.88857
2412,57450,-0.00558587,4.89424
2414,57510,-0.00558587,4.90029
2416,57565,-0.00555253,4.90576
2418,57621,-0.00556429,4.91133
2420,57681,-0.00556429,4.91748
2422,57737,-0.0055692,4.92305
2424,57793,-0.0055692,4.92852
2426,57857,-0.00547603,4.93496
2428,57916,-0.00543092,4.94092
2430,57973,-0.00543092,4.94658
2432,58037,-0.00533188,4.95293
2434,58097,-0.00527108,4.95898
2436,58156,-0.00527108,4.96494
2438,58215,-0.00530442,4.9708
2440,58273,-0.00522695,4.97656
2442,58341,-0.00522695,4.9833
2444,58407,-0.00526029,4.99004
2446,58462,-0.00526029,4.99473
2448,58517,-0.00535443,4.99795
2450,58573,-0.00545936,4.99971
2451,58608,-0.00545936,5.0