File: tensile_tests/04.03.25_WT.csv
,Time,Force (Newtons),Distance (millimeters)
0,5,3.65788e-07,0.0
2,264,-1.14022e-05,0.0
4,301,-1.14022e-05,0.0
6,331,6.60703e-05,0.0
8,383,6.60703e-05,0.0
10,412,6.60703e-05,0.0
12,442,1.70371e-05,0.0
14,472,1.70371e-05,0.0
16,499,1.70371e-05,0.0
18,526,3.65788e-07,0.0
20,555,3.65788e-07,0.0
22,582,3.65788e-07,0.0
24,609,-9.37781e-05,0.0
26,636,-9.37781e-05,0.0
28,664,-9.37781e-05,0.0
30,692,-9.37781e-05,0.0
32,720,-0.000171251,0.0
34,746,-0.000171251,0.0
36,773,-0.000171251,0.0
38,800,-0.000165367,0.0
40,825,-0.000165367,0.0
42,854,-0.000165367,0.0
44,881,-0.000165367,0.0
46,909,-9.9662e-05,0.0
48,935,-9.9662e-05,0.0
50,964,-9.9662e-05,0.0
52,990,4.9399e-05,0.0
54,1018,4.9399e-05,0.0
56,1044,4.9399e-05,0.0
58,1073,4.9399e-05,0.0
60,1102,6.60703e-05,0.0
62,1130,6.60703e-05,0.0
64,1156,6.60703e-05,0.0
66,1182,9.3529e-05,0.0
68,1209,9.3529e-05,0.0
70,1238,9.3529e-05,0.0
72,1265,9.3529e-05,0.0
74,1292,8.27416e-05,0.0
76,1318,8.27416e-05,0.0
78,1342,8.27416e-05,0.0
80,1369,2.19404e-05,0.0
82,1395,2.19404e-05,0.0
84,1423,2.19404e-05,0.0
86,1452,2.19404e-05,0.0
88,1478,7.68577e-05,0.0
90,1505,7.68577e-05,0.0
92,1533,7.68577e-05,0.0
94,1564,0.000120988,0.0
96,1591,0.000120988,0.0
98,1619,0.000120988,0.0
100,1649,0.000120988,0.0
102,1676,0.000137659,0.0
104,1702,0.000137659,0.0
106,1732,0.000137659,0.0
108,1761,0.000193557,0.0
110,1790,0.000193557,0.0
112,1819,0.000193557,0.0
114,1847,0.00019846,0.0
116,1872,0.00019846,0.0
118,1902,0.00019846,0.0
120,1927,0.00019846,0.0
122,1955,0.000171001,0.0
124,1981,0.000171001,0.0
126,2008,0.000171001,0.0
128,2036,0.000187673,0.0
130,2065,0.000187673,0.0
132,2091,0.000187673,0.0
134,2122,0.000187673,0.0
136,2148,0.000176885,0.0
138,2175,0.000176885,0.0
140,2202,0.000176885,0.0
142,2230,0.000181789,0.0
144,2257,0.000181789,0.0
146,2285,0.000181789,0.0
148,2312,0.000181789,0.0
150,2340,0.000176885,0.0
152,2367,0.000176885,0.0
154,2396,0.000176885,0.0
156,2423,0.000176885,0.0
158,2452,0.000176885,0.0
160,2479,0.000176885,0.0
162,2507,0.000275933,0.0
164,2535,0.000275933,0.0
166,2564,0.000275933,0.0
168,2593,0.000275933,0.0
170,2619,0.000380864,0.0
172,2646,0.000380864,0.0
174,2672,0.000380864,0.0
176,2699,0.000529925,0.0
178,2725,0.000529925,0.0
180,2756,0.000529925,0.0
182,2782,0.000529925,0.0
184,2809,0.000645643,0.0
186,2836,0.000645643,0.0
188,2864,0.000645643,0.0
190,2892,0.000673102,0.0
192,2919,0.000673102,0.0
194,2948,0.000673102,0.0
196,2976,0.000673102,0.0
198,3004,0.000717232,0.0
200,3032,0.000717232,0.0
202,3060,0.000717232,0.0
204,3087,0.000794704,0.0
206,3114,0.000794704,0.0
208,3142,0.000794704,0.0
210,3168,0.000794704,0.0
212,3197,0.00087708,0.0
214,3223,0.00087708,0.0
216,3252,0.00087708,0.0
218,3284,0.000943766,0.0
220,3314,0.000943766,0.0
222,3340,0.000943766,0.0
224,3367,0.000932978,0.0
226,3395,0.000932978,0.0
228,3423,0.000932978,0.0
230,3449,0.000932978,0.0
232,3478,0.000971224,0.0
234,3507,0.000971224,0.0
236,3535,0.000971224,0.0
238,3563,0.00103203,0.0
240,3589,0.00103203,0.0
242,3616,0.00103203,0.0
244,3642,0.00103203,0.0
246,3667,0.00107027,0.0
248,3694,0.00107027,0.0
250,3723,0.00107027,0.0
252,3753,0.00112617,0.0
254,3783,0.00112617,0.0
256,3815,0.00112617,0.0
258,3846,0.00116442,0.0
260,3873,0.00116442,0.0
262,3902,0.00116442,0.0
264,3933,0.00116442,0.0
266,3965,0.00121933,0.0
268,3991,0.00121933,0.0
270,4020,0.00121933,0.0
272,4052,0.001236,0.0
274,4080,0.001236,0.0
276,4107,0.001236,0.0
278,4136,0.00135172,0.0
280,4164,0.00135172,0.0
282,4193,0.00135172,0.0
284,4221,0.00146842,0.0
286,4249,0.00146842,0.0
288,4276,0.00146842,0.0
290,4303,0.00146842,0.0
292,4334,0.00147332,0.0
294,4365,0.00147332,0.0
296,4393,0.00147332,0.0
298,4421,0.0015508,0.0
300,4451,0.0015508,0.0
302,4481,0.0015508,0.0
304,4511,0.00156747,0.0
306,4538,0.00156747,0.0
308,4567,0.00156747,0.0
310,4598,0.00156747,0.0
312,4627,0.00151255,0.0
314,4657,0.00151255,0.0
316,4685,0.00151255,0.0
318,4717,0.00151745,0.0
320,4746,0.00151745,0.0
322,4776,0.00151745,0.0
324,4804,0.00152824,0.0
326,4834,0.00152824,0.0
328,4865,0.00152824,0.0
330,4896,0.00155668,0.0
332,4925,0.00155668,0.0
334,4953,0.00155668,0.0
336,4982,0.00155668,0.0
338,5010,0.00159493,0.0
340,5041,0.00159493,0.0
342,5069,0.00159493,0.0
344,5100,0.0016116,0.0
346,5129,0.0016116,0.0
348,5157,0.0016116,0.0
350,5185,0.00161748,0.0
352,5212,0.00161748,0.0
354,5243,0.00161748,0.0
356,5270,0.00161748,0.0
358,5300,0.00161748,0.0
360,5331,0.00161748,0.0
362,5358,0.00161748,0.0
364,5385,0.00157335,0.0
366,5417,0.00157335,0.0
368,5447,0.00157335,0.0
370,5475,0.00155668,0.0
372,5502,0.00155668,0.0
374,5530,0.00155668,0.0
376,5560,0.00166161,0.0
378,5591,0.00166161,0.0
380,5620,0.00166161,0.0
382,5652,0.00166652,0.0
384,5683,0.00166652,0.0
386,5713,0.00166652,0.0
388,5741,0.00166652,0.0
390,5771,0.00169397,0.0
392,5801,0.00169397,0.0
394,5829,0.00169397,0.0
396,5858,0.00177145,0.0
398,5886,0.00177145,0.0
400,5915,0.00177145,0.0
402,5943,0.00171065,0.0
404,5970,0.00171065,0.0
406,6001,0.00171065,0.0
408,6029,0.00171065,0.0
410,6057,0.00180969,0.0
412,6087,0.00180969,0.0
414,6115,0.00180969,0.0
416,6143,0.00194306,0.0
418,6170,0.00194306,0.0
420,6199,0.00194306,0.0
422,6228,0.0020529,0.0
424,6254,0.0020529,0.0
426,6284,0.0020529,0.0
428,6315,0.0020529,0.0
430,6343,0.00211958,0.0
432,6371,0.00211958,0.0
434,6400,0.00211958,0.0
436,6430,0.00211958,0.0
438,6458,0.00211958,0.0
440,6488,0.00211958,0.0
442,6519,0.00204701,0.0
444,6551,0.00204701,0.0
446,6583,0.00204701,0.0
448,6613,0.00189893,0.0
450,6643,0.00189893,0.0
452,6670,0.00189893,0.0
454,6701,0.00190972,0.0
456,6731,0.00190972,0.0
458,6760,0.00190972,0.0
460,6788,0.00190972,0.0
462,6815,0.00193718,0.0
464,6846,0.00193718,0.0
466,6876,0.00193718,0.0
468,6905,0.00198719,0.0
470,6935,0.00198719,0.0
472,6965,0.00198719,0.0
474,6999,0.00209703,0.0
476,7031,0.00209703,0.0
478,7057,0.00209703,0.0
480,7086,0.00210291,0.0
482,7115,0.00210291,0.0
484,7142,0.00210291,0.0
486,7169,0.00210291,0.0
488,7200,0.00205878,0.0
490,7229,0.00205878,0.0
492,7258,0.00205878,0.0
494,7287,0.00209703,0.0
496,7318,0.00209703,0.0
498,7350,0.00209703,0.0
500,7401,0.00209212,9.765625e-05
502,7502,0.0021137,0.000488281
504,7545,0.0021137,0.00078125
506,7589,0.00221275,0.00107422
508,7629,0.00221275,0.0015625
510,7671,0.00230689,0.00205078
512,7709,0.00230689,0.00253906
514,7747,0.00257755,0.003125
516,7789,0.00257755,0.00390625
518,7828,0.00257755,0.0046875
520,7869,0.00299139,0.00546875
522,7909,0.00299139,0.00634766
524,7948,0.00348271,0.00732422
526,7991,0.00348271,0.00839844
528,8032,0.00410641,0.00957031
530,8074,0.00410641,0.0108398
532,8113,0.00410641,0.0120117
534,8153,0.00493899,0.0133789
536,8194,0.00493899,0.0147461
538,8235,0.00590495,0.0163086
540,8274,0.00590495,0.0177734
542,8314,0.00590495,0.0193359
544,8355,0.00709744,0.02109375
546,8394,0.00709744,0.0227539
548,8432,0.00845468,0.0245117
550,8473,0.00845468,0.0263672
552,8512,0.0098129,0.0283203
554,8553,0.0098129,0.0303711
556,8600,0.0112525,0.0327148
558,8651,0.0112525,0.0355469
560,8697,0.012649,0.0381836
562,8742,0.012649,0.0408203
564,8784,0.012649,0.0433594
566,8825,0.0141004,0.0458984
568,8870,0.0141004,0.0487305
570,8913,0.0157783,0.0515625
572,8953,0.0157783,0.0542969
574,8998,0.0176219,0.0574219
576,9042,0.0176219,0.0604492
578,9081,0.0195254,0.0633789
580,9126,0.0195254,0.0666992
582,9167,0.0195254,0.0698242
584,9209,0.0215789,0.0732422
586,9249,0.0215789,0.0763672
588,9290,0.0239629,0.0797852
590,9334,0.0239629,0.0833984
592,9375,0.0266391,0.0869141
594,9422,0.0266391,0.0911133
596,9463,0.0297949,0.0947266
598,9502,0.0297949,0.0983398
600,9545,0.0297949,0.102246
602,9595,0.0335695,0.107031
604,9637,0.0335695,0.111133
606,9679,0.0378854,0.115234
608,9721,0.0378854,0.119531
610,9768,0.0427917,0.124219
612,9810,0.0427917,0.128418
614,9852,0.048863,0.13252
616,9894,0.048863,0.136816
618,9937,0.0560817,0.141113
620,9980,0.0560817,0.14541
622,10023,0.0560817,0.149707
624,10065,0.0643869,0.153906
626,10108,0.0643869,0.158105
628,10149,0.0745692,0.162207
630,10193,0.0745692,0.166699
632,10288,0.085938,0.176172
634,10327,0.0987249,0.180078
636,10369,0.0987249,0.184277
638,10411,0.113891,0.188477
640,10451,0.113891,0.19248
642,10492,0.113891,0.196582
644,10532,0.13075,0.200586
646,10574,0.13075,0.204688
648,10619,0.15048,0.20918
650,10661,0.15048,0.213477
652,10704,0.172694,0.217773
654,10748,0.172694,0.222168
656,10793,0.196507,0.22666
658,10836,0.196507,0.230957
660,10891,0.223538,0.236523
662,10931,0.223538,0.24043
664,10976,0.223538,0.24502
666,11018,0.2527,0.249121
668,11060,0.2527,0.253418
670,11101,0.285338,0.257422
672,11208,0.322021,0.268164
674,11251,0.322021,0.272461
676,11293,0.360598,0.276758
678,11332,0.360598,0.280566
680,11373,0.403805,0.284668
682,11412,0.403805,0.288574
684,11454,0.403805,0.292773
686,11493,0.450406,0.29668
688,11536,0.450406,0.300977
690,11579,0.500362,0.305273
692,11621,0.500362,0.309473
694,11663,0.556615,0.313672
696,11708,0.556615,0.318066
698,11749,0.615037,0.322266
700,11789,0.615037,0.32627
702,11830,0.615037,0.330371
704,11874,0.678195,0.334766
706,11913,0.678195,0.33877
708,11952,0.746727,0.342578
710,11994,0.746727,0.346777
712,12087,0.81766,0.356055
714,12128,0.895762,0.360156
716,12169,0.895762,0.364258
718,12210,0.895762,0.368359
720,12252,0.975901,0.372559
722,12294,0.975901,0.376758
724,12337,1.05746,0.380957
726,12377,1.05746,0.385059
728,12419,1.14414,0.389258
730,12462,1.14414,0.393555
732,12502,1.14414,0.397559
734,12546,1.2293,0.401953
736,12590,1.2293,0.406348
738,12629,1.31765,0.410254
740,12671,1.31765,0.414453
742,12712,1.40611,0.418555
744,12751,1.40611,0.422461
746,12794,1.48917,0.426758
748,12839,1.48917,0.43125
750,12881,1.48917,0.435547
752,12979,1.63462,0.4453125
754,13023,1.63462,0.449609
756,13064,1.63462,0.453809
758,13107,1.67592,0.458105
760,13150,1.67592,0.462402
762,13192,1.72006,0.466504
764,13231,1.72006,0.470508
766,13274,1.76894,0.474707
768,13313,1.76894,0.478711
770,13358,1.76894,0.483203
772,13402,1.83826,0.4875
774,13445,1.83826,0.491797
776,13486,1.93128,0.495898
778,13527,1.93128,0.500098
780,13570,2.02456,0.504297
782,13611,2.02456,0.508398
784,13651,2.11621,0.5125
786,13695,2.11621,0.516797
788,13827,2.20095,0.52998
790,13869,2.28423,0.534277
792,13964,2.36633,0.54375
794,14008,2.36633,0.548242
796,14050,2.4439,0.552344
798,14095,2.4439,0.556738
800,14140,2.5243,0.561426
802,14182,2.5243,0.565527
804,14225,2.60092,0.569922
806,14266,2.60092,0.573926
808,14311,2.60092,0.578516
810,14353,2.67471,0.582617
812,14397,2.67471,0.587109
814,14440,2.74949,0.591406
816,14482,2.74949,0.595508
818,14524,2.80935,0.599707
820,14566,2.80935,0.603906
822,14607,2.8378,0.608008
824,14647,2.8378,0.612012
826,14693,2.87367,0.616699
828,14736,2.87367,0.620898
830,14778,2.87367,0.625195
832,14877,2.9196,0.634961
834,14919,2.98291,0.639258
836,14963,2.98291,0.643652
838,15007,3.07891,0.648047
840,15049,3.07891,0.652246
842,15092,3.16824,0.656543
844,15133,3.16824,0.660645
846,15177,3.24481,0.665039
848,15221,3.24481,0.669531
850,15265,3.30972,0.673828
852,15306,3.30972,0.678027
854,15347,3.30972,0.682129
856,15394,3.37314,0.686816
858,15443,3.37314,0.691699
860,15486,3.43458,0.695898
862,15529,3.43458,0.700293
864,15577,3.4949,0.70498
866,15620,3.4949,0.709375
868,15663,3.55975,0.713574
870,15706,3.55975,0.717969
872,15802,3.62018,0.727539
874,15850,3.67138,0.732324
876,15895,3.67138,0.736816
878,15938,3.7064,0.741113
880,15981,3.7064,0.74541
882,16026,3.73471,0.749902
884,16067,3.73471,0.754004
886,16112,3.73471,0.758496
888,16157,3.7662,0.762988
890,16199,3.7662,0.7671875
892,16247,3.80264,0.771973
894,16292,3.80264,0.776465
896,16335,3.85154,0.780859
898,16381,3.85154,0.785449
900,16426,3.90486,0.789941
902,16469,3.90486,0.794238
904,16513,3.95622,0.798633
906,16556,3.95622,0.80293
908,16598,4.01153,0.807129
910,16641,4.01153,0.811426
912,16732,4.06718,0.820508
914,16780,4.06718,0.825391
916,16822,4.11942,0.829492
918,16863,4.11942,0.833691
920,16909,4.17225,0.838184
922,16956,4.17225,0.842871
924,17000,4.22248,0.847266
926,17044,4.22248,0.851758
928,17087,4.27667,0.856055
930,17131,4.27667,0.860449
932,17175,4.33628,0.864844
934,17216,4.33628,0.868945
936,17261,4.33628,0.8734375
938,17301,4.3956,0.877441
940,17344,4.3956,0.881738
942,17387,4.46019,0.886035
944,17430,4.46019,0.890332
946,17477,4.5252,0.89502
948,17519,4.5252,0.899316
950,17564,4.59026,0.903711
952,17661,4.65872,0.913379
954,17704,4.65872,0.917676
956,17747,4.72048,0.92207
958,17791,4.72048,0.926367
960,17834,4.72048,0.930664
962,17880,4.78143,0.935254
964,17925,4.78143,0.939844
966,17969,4.84175,0.944238
968,18016,4.84175,0.948926
970,18062,4.8987,0.953516
972,18106,4.8987,0.95791
974,18149,4.96169,0.962207
976,18193,4.96169,0.966602
978,18235,5.02232,0.970898
980,18280,5.02232,0.975293
982,18327,5.08275,0.97998
984,18374,5.08275,0.984766
986,18419,5.14645,0.989258
988,18464,5.14645,0.99375
990,18511,5.20452,0.9984375
992,18605,5.26589,1.00791
994,18649,5.26589,1.01221
996,18697,5.32518,1.01699
998,18744,5.32518,1.02168
1000,18790,5.37998,1.02637
1002,18832,5.37998,1.03057
1004,18878,5.37998,1.03506
1006,18924,5.43943,1.03975
1008,18965,5.43943,1.04385
1010,19011,5.49172,1.04854
1012,19054,5.49172,1.05283
1014,19098,5.53147,1.05713
1016,19145,5.53147,1.06182
1018,19191,5.56289,1.06641
1020,19233,5.56289,1.07061
1022,19279,5.59186,1.07529
1024,19324,5.59186,1.07969
1026,19366,5.63594,1.08389
1028,19410,5.63594,1.08838
1030,19452,5.63594,1.09258
1032,19496,5.6961,1.09687
1034,19599,5.76736,1.10723
1036,19645,5.84164,1.11182
1038,19691,5.84164,1.11641
1040,19734,5.84164,1.1207
1042,19778,5.90288,1.1252
1044,19822,5.90288,1.12949
1046,19869,5.9646,1.13418
1048,19915,5.9646,1.13887
1050,19961,6.0263,1.14336
1052,20008,6.0263,1.14814
1054,20057,6.08381,1.15303
1056,20101,6.08381,1.15742
1058,20148,6.14884,1.16211
1060,20195,6.14884,1.1668
1062,20238,6.20939,1.17119
1064,20283,6.20939,1.17559
1066,20331,6.26936,1.18037
1068,20379,6.26936,1.18516
1070,20425,6.33505,1.18975
1072,20470,6.33505,1.19434
1074,20565,6.39456,1.20381
1076,20610,6.45978,1.2083
1078,20653,6.45978,1.2126
1080,20700,6.52463,1.21719
1082,20748,6.52463,1.22207
1084,20794,6.58247,1.22666
1086,20842,6.58247,1.23154
1088,20887,6.64576,1.23604
1090,20934,6.64576,1.24072
1092,20977,6.70311,1.24502
1094,21021,6.70311,1.24941
1096,21067,6.70311,1.254
1098,21115,6.76129,1.25879
1100,21163,6.76129,1.26357
1102,21244,6.8229,1.27178
1104,21292,6.87702,1.27646
1106,21337,6.87702,1.28105
1108,21380,6.93654,1.28535
1110,21424,6.93654,1.28975
1112,21468,6.99433,1.29404
1114,21514,6.99433,1.29873
1116,21615,7.05155,1.30879
1118,21664,7.11764,1.31367
1120,21711,7.11764,1.31836
1122,21757,7.17655,1.32305
1124,21800,7.17655,1.32725
1126,21846,7.2385,1.33193
1128,21892,7.2385,1.33652
1130,21938,7.3024,1.34111
1132,21983,7.3024,1.34551
1134,22032,7.35993,1.35049
1136,22079,7.35993,1.35518
1138,22124,7.42555,1.35977
1140,22168,7.42555,1.36416
1142,22214,7.42555,1.36875
1144,22260,7.48643,1.37334
1146,22309,7.48643,1.37822
1148,22355,7.54451,1.38281
1150,22403,7.54451,1.3876
1152,22448,7.60892,1.39209
1154,22494,7.60892,1.39668
1156,22590,7.66653,1.40625
1158,22642,7.73152,1.41152
1160,22692,7.79747,1.4165
1162,22738,7.79747,1.42109
1164,22785,7.79747,1.42578
1166,22832,7.85517,1.43047
1168,22878,7.85517,1.43506
1170,22923,7.91952,1.43955
1172,22965,7.91952,1.44375
1174,23011,7.9768,1.44844
1176,23058,7.9768,1.45303
1178,23105,8.03324,1.45781
1180,23153,8.03324,1.4626
1182,23197,8.09337,1.46699
1184,23244,8.09337,1.47168
1186,23288,8.14384,1.47607
1188,23334,8.14384,1.48076
1190,23382,8.19687,1.48545
1192,23427,8.19687,1.48994
1194,23472,8.24507,1.49443
1196,23521,8.24507,1.49941
1198,23621,8.29042,1.509375
1200,23667,8.34509,1.51396
1202,23713,8.34509,1.51855
1204,23762,8.3948,1.52354
1206,23809,8.3948,1.528125
1208,23857,8.44988,1.53301
1210,23902,8.44988,1.5375
1212,23949,8.50763,1.54219
1214,23996,8.50763,1.546875
1216,24043,8.55748,1.55156
1218,24090,8.55748,1.55625
1220,24136,8.61392,1.56084
1222,24181,8.61392,1.56543
1224,24228,8.66567,1.57012
1226,24275,8.66567,1.5748
1228,24321,8.7155,1.57939
1230,24368,8.7155,1.58408
1232,24416,8.77252,1.58887
1234,24463,8.77252,1.59355
1236,24508,8.82375,1.59805
1238,24608,8.88137,1.60811
1240,24654,8.88137,1.6127
1242,24700,8.93718,1.61729
1244,24749,8.93718,1.62217
1246,24796,8.98463,1.62686
1248,24842,8.98463,1.63154
1250,24887,9.03589,1.63604
1252,24927,9.03589,1.64004
1254,24970,9.03589,1.64424
1256,25012,9.07875,1.64844
1258,25056,9.07875,1.65283
1260,25101,9.12259,1.65732
1262,25147,9.12259,1.66201
1264,25192,9.16723,1.6665
1266,25239,9.16723,1.67119
1268,25286,9.20265,1.67588
1270,25332,9.20265,1.68047
1272,25378,9.24504,1.68506
1274,25426,9.24504,1.68984
1276,25471,9.28377,1.69434
1278,25572,9.3214,1.70449
1280,25621,9.3214,1.70937
1282,25668,9.36628,1.71406
1284,25715,9.36628,1.71885
1286,25766,9.4017,1.72393
1288,25812,9.4017,1.72852
1290,25857,9.44311,1.73291
1292,25901,9.44311,1.7374
1294,25948,9.48855,1.74209
1296,25994,9.48855,1.74668
1298,26043,9.53211,1.75156
1300,26089,9.53211,1.75625
1302,26133,9.58415,1.76064
1304,26180,9.58415,1.76523
1306,26226,9.62672,1.76992
1308,26271,9.62672,1.77441
1310,26318,9.66828,1.7791
1312,26370,9.66828,1.78428
1314,26415,9.71109,1.78877
1316,26511,9.74012,1.79844
1318,26573,9.74012,1.80449
1320,26618,9.77307,1.80908
1322,26666,9.77307,1.81387
1324,26712,9.80061,1.81846
1326,26761,9.80061,1.82344
1328,26809,9.82662,1.82822
1330,26855,9.82662,1.83281
1332,26905,9.8705,1.83779
1334,26953,9.8705,1.84258
1336,26997,9.91521,1.84697
1338,27043,9.91521,1.85156
1340,27090,9.96783,1.85625
1342,27135,9.96783,1.86084
1344,27182,10.0213,1.86553
1346,27229,10.0213,1.87021
1348,27278,10.0629,1.875
1350,27325,10.0629,1.87979
1352,27372,10.1111,1.88447
1354,27418,10.1111,1.88906
1356,27511,10.1521,1.89844
1358,27572,10.1926,1.90439
1360,27619,10.1926,1.90918
1362,27666,10.239,1.91387
1364,27715,10.239,1.91875
1366,27765,10.2717,1.92383
1368,27815,10.2717,1.92881
1370,27863,10.31,1.93359
1372,27913,10.31,1.93848
1374,27961,10.3464,1.94336
1376,28010,10.3464,1.94824
1378,28058,10.3775,1.95303
1380,28108,10.3775,1.95811
1382,28157,10.4161,1.96299
1384,28203,10.4161,1.96758
1386,28259,10.4416,1.97314
1388,28310,10.4642,1.97822
1390,28357,10.4642,1.98301
1392,28403,10.4648,1.9876
1394,28449,10.4648,1.99219
1396,28496,10.4648,1.996875
1398,28544,10.4473,2.00166
1400,28647,10.447,2.01201
1402,28696,10.4402,2.0168
1404,28744,10.4402,2.02168
1406,28793,10.4501,2.02656
1408,28841,10.4501,2.03135
1410,28887,10.4025,2.03594
1412,28937,10.4025,2.04092
1414,29010,10.2711,2.04834
1416,29068,10.2711,2.0541
1418,29122,10.1381,2.05947
1420,29175,9.98196,2.06475
1422,29222,9.98196,2.06943
1424,29273,9.84521,2.07451
1426,29323,9.84521,2.07949
1428,29374,9.57124,2.08467
1430,29421,9.57124,2.08936
1432,29467,9.18397,2.09395
1434,29517,9.18397,2.09893
1436,29568,8.639,2.104
1438,29617,8.639,2.10898
1440,29712,7.88441,2.11846
1442,29776,6.99676,2.1249
1444,29825,6.99676,2.12979
1446,29875,5.76492,2.13477
1448,29926,5.76492,2.13984
1450,29972,4.41908,2.14453
1452,30019,4.41908,2.14912
1454,30067,3.20934,2.154
1456,30115,3.20934,2.15879
1458,30165,2.29117,2.16377
1460,30215,1.81086,2.16875
1462,30267,1.81086,2.17393
1464,30314,1.59938,2.17871
1466,30363,1.59938,2.18359
1468,30409,1.47736,2.18809
1470,30458,1.47736,2.19307
1472,30506,1.37939,2.19785
1474,30559,1.37939,2.203125
1476,30608,1.2852,2.20801
1478,30654,1.2852,2.2127
1480,30759,1.20017,2.22314
1482,30808,1.13341,2.228125
1484,30858,1.13341,2.23311
1486,30908,1.0755,2.23809
1488,30955,1.0755,2.24277
1490,31003,1.0236,2.24756
1492,31053,1.0236,2.25254
1494,31102,0.977722,2.25752
1496,31150,0.977722,2.2623
1498,31201,0.936436,2.26729
1500,31252,0.936436,2.27246
1502,31302,0.904184,2.27744
1504,31352,0.904184,2.28252
1506,31400,0.874002,2.2873
1508,31447,0.874002,2.29199
1510,31495,0.837203,2.29678
1512,31543,0.837203,2.30146
1514,31592,0.798516,2.30645
1516,31641,0.758433,2.31143
1518,31690,0.758433,2.31631
1520,31793,0.725242,2.32559
1522,31843,0.703819,2.33154
1524,31893,0.703819,2.33662
1526,31942,0.687141,2.3415
1528,31993,0.687141,2.34658
1530,32043,0.668255,2.35156
1532,32091,0.668255,2.35635
1534,32144,0.643288,2.36162
1536,32193,0.643288,2.3666
1538,32244,0.615623,2.37168
1540,32294,0.615623,2.37666
1542,32344,0.584828,2.38164
1544,32395,0.584828,2.38672
1546,32447,0.553662,2.39189
1548,32497,0.523077,2.39697
1550,32548,0.523077,2.40205
1552,32599,0.491217,2.40713
1554,32646,0.491217,2.41182
1556,32695,0.461372,2.4167
1558,32751,0.461372,2.42227
1560,32860,0.433999,2.4332
1562,32925,0.407442,2.43975
1564,32975,0.380758,2.44473
1566,33022,0.380758,2.44941
1568,33072,0.352049,2.45449
1570,33125,0.352049,2.45977
1572,33175,0.321353,2.46484
1574,33224,0.321353,2.46963
1576,33272,0.288141,2.47441
1578,33322,0.288141,2.47949
1580,33372,0.253875,2.48447
1582,33423,0.253875,2.48955
1584,33469,0.225211,2.49414
1586,33518,0.225211,2.49893
1588,33567,0.202871,2.50391
1590,33617,0.202871,2.50889
1592,33671,0.189007,2.51436
1594,33720,0.189007,2.51934
1596,33775,0.183136,2.52471
1598,33823,0.183136,2.52959
1600,33924,0.177677,2.53877
1602,33978,0.17207,2.54502
1604,34031,0.167694,2.55029
1606,34084,0.167694,2.55566
1608,34134,0.164344,2.56064
1610,34187,0.164344,2.56602
1612,34238,0.161899,2.571
1614,34292,0.161899,2.57637
1616,34340,0.159587,2.58125
1618,34388,0.159587,2.58604
1620,34436,0.156341,2.59082
1622,34487,0.156341,2.5959
1624,34537,0.152793,2.60098
1626,34589,0.152793,2.60605
1628,34672,0.149664,2.61445
1630,34723,0.147467,2.61953
1632,34774,0.147467,2.62461
1634,34829,0.146738,2.63008
1636,34881,0.147036,2.63535
1638,34930,0.147036,2.64023
1640,35029,0.148135,2.6501
1642,35087,0.149454,2.65586
1644,35139,0.149454,2.66113
1646,35189,0.15063,2.66611
1648,35243,0.15063,2.67148
1650,35293,0.151772,2.67656
1652,35343,0.151772,2.68154
1654,35396,0.152434,2.68682
1656,35446,0.152434,2.6918
1658,35493,0.152936,2.69658
1660,35543,0.152936,2.70156
1662,35593,0.152887,2.70654
1664,35643,0.152782,2.71152
1666,35693,0.152782,2.7165
1668,35745,0.152705,2.72168
1670,35795,0.152705,2.72676
1672,35844,0.150773,2.73154
1674,35899,0.150773,2.73701
1676,35950,0.147837,2.74219
1678,36000,0.147837,2.74717
1680,36049,0.142688,2.75215
1682,36160,0.13377,2.76318
1684,36213,0.123306,2.76855
1686,36266,0.123306,2.77383
1688,36316,0.111937,2.77881
1690,36370,0.111937,2.78418
1692,36420,0.102042,2.78926
1694,36469,0.102042,2.79414
1696,36521,0.0963134,2.79932
1698,36577,0.0963134,2.80488
1700,36627,0.0942766,2.80996
1702,36675,0.0942766,2.81475
1704,36729,0.094459,2.82012
1706,36779,0.094459,2.8251
1708,36828,0.0950445,2.82998
1710,36879,0.0951925,2.83506
1712,36930,0.0951925,2.84023
1714,36982,0.0950935,2.84541
1716,37032,0.0950935,2.85049
1718,37081,0.0946963,2.85537
1720,37133,0.0946963,2.86055
1722,37236,0.0940952,2.8708
1724,37297,0.0933273,2.87695
1726,37349,0.0933273,2.88203
1728,37434,0.0920034,2.890625
1730,37486,0.090756,2.8958
1732,37533,0.090756,2.90059
1734,37589,0.0894262,2.90615
1736,37643,0.0878258,2.91152
1738,37695,0.0878258,2.9167
1740,37749,0.0860204,2.92217
1742,37798,0.0860204,2.92705
1744,37850,0.0837364,2.93213
1746,37903,0.0837364,2.9375
1748,37956,0.081727,2.94277
1750,38007,0.081727,2.94795
1752,38057,0.0801491,2.95293
1754,38104,0.0801491,2.95762
1756,38155,0.0789625,2.9627
1758,38207,0.0789625,2.96787
1760,38260,0.0783996,2.97314
1762,38368,0.0779299,2.98398
1764,38420,0.0776759,2.98926
1766,38473,0.0776759,2.99453
1768,38523,0.0777151,2.99951
1770,38573,0.0777151,3.00449
1772,38624,0.0775053,3.00957
1774,38675,0.0775053,3.01465
1776,38724,0.0771356,3.01963
1778,38778,0.0771356,3.025
1780,38827,0.0765501,3.02998
1782,38878,0.0758499,3.03496
1784,38928,0.0758499,3.04004
1786,38978,0.0755851,3.04502
1788,39032,0.0755851,3.05039
1790,39082,0.0755567,3.05537
1792,39138,0.0755567,3.06104
1794,39190,0.0757175,3.06621
1796,39242,0.0757175,3.07139
1798,39292,0.0759823,3.07637
1800,39343,0.0759823,3.08154
1802,39449,0.0760264,3.09209
1804,39501,0.0760264,3.09736
1806,39552,0.0747349,3.10244
1808,39604,0.0747349,3.10762
1810,39658,0.0713624,3.11299
1812,39710,0.0713624,3.11816
1814,39760,0.0675437,3.12324
1816,39810,0.0675437,3.12822
1818,39860,0.0636141,3.1332
1820,39911,0.0636141,3.13828
1822,39963,0.0607055,3.14346
1824,40015,0.0607055,3.14863
1826,40069,0.0598121,3.1541
1828,40120,0.0594091,3.15918
1830,40175,0.0594091,3.16475
1832,40228,0.0591109,3.17002
1834,40282,0.0591109,3.17539
1836,40334,0.0589011,3.18057
1838,40388,0.0589011,3.18604
1840,40439,0.0588795,3.19111
1842,40489,0.0588795,3.19609
1844,40587,0.0592266,3.20596
1846,40641,0.059768,3.21133
1848,40695,0.0607496,3.2166
1850,40752,0.0607496,3.22246
1852,40801,0.0620912,3.22734
1854,40852,0.0620912,3.23242
1856,40904,0.0633602,3.2376
1858,40959,0.0633602,3.24307
1860,41008,0.0647184,3.24805
1862,41061,0.0647184,3.25332
1864,41112,0.0659766,3.2584
1866,41164,0.0670249,3.26367
1868,41215,0.0670249,3.26865
1870,41269,0.0678967,3.27402
1872,41321,0.0678967,3.2793
1874,41377,0.0682556,3.28496
1876,41428,0.0682556,3.29004
1878,41478,0.0683713,3.29492
1880,41527,0.0683713,3.2999
1882,41580,0.0683939,3.30518
1884,41631,0.0683939,3.31035
1886,41725,0.0684822,3.31973
1888,41778,0.0690225,3.325
1890,41828,0.0697404,3.32998
1892,41883,0.0697404,3.33545
1894,41938,0.0705072,3.34092
1896,41989,0.0705072,3.34619
1898,42042,0.0712967,3.35137
1900,42093,0.0712967,3.35645
1902,42148,0.072042,3.36201
1904,42200,0.072042,3.36719
1906,42256,0.0727481,3.37285
1908,42309,0.0733659,3.37813
1910,42361,0.0733659,3.3832
1912,42413,0.0740945,3.38848
1914,42464,0.0740945,3.39365
1916,42516,0.0751987,3.39883
1918,42568,0.0751987,3.404
1920,42618,0.0762579,3.40898
1922,42671,0.0762579,3.41426
1924,42725,0.0774827,3.41973
1926,42836,0.0788017,3.43086
1928,42888,0.0798285,3.43604
1930,42938,0.0798285,3.44102
1932,42994,0.0809268,3.44658
1934,43046,0.0809268,3.45176
1936,43098,0.0819643,3.45693
1938,43152,0.0819643,3.4624
1940,43203,0.0828146,3.46758
1942,43256,0.0828146,3.47275
1944,43308,0.0835756,3.47803
1946,43360,0.0835648,3.4832
1948,43413,0.0835648,3.48848
1950,43465,0.0823949,3.49365
1952,43518,0.0823949,3.49902
1954,43570,0.0807395,3.5042
1956,43624,0.0807395,3.50967
1958,43680,0.0789459,3.51514
1960,43737,0.0772738,3.5209
1962,43792,0.0772738,3.52627
1964,43841,0.0759048,3.53125
1966,43938,0.0741494,3.54102
1968,43993,0.0741494,3.54648
1970,44046,0.0703641,3.55186
1972,44099,0.0703641,3.55703
1974,44235,0.0528308,3.57061
1976,44290,0.0528308,3.57617
1978,44346,0.0406283,3.58174
1980,44398,0.0406283,3.58701
1982,44452,0.0288957,3.59238
1984,44506,0.0198784,3.59775
1986,44562,0.0198784,3.60342
1988,44613,0.0143269,3.6084
1990,44668,0.0143269,3.61396
1992,44726,0.0112584,3.61982
1994,44780,0.009757,3.6252
1996,44835,0.009757,3.63076
1998,44894,0.00929903,3.63662
2000,44945,0.00929903,3.6417
2002,44995,0.00918331,3.64668
2004,45047,0.00918331,3.65186
2006,45154,0.00914997,3.6626
2008,45222,0.00908917,3.66934
2010,45276,0.00899012,3.6748
2012,45326,0.00899012,3.67988
2014,45380,0.00895678,3.68516
2016,45436,0.00895678,3.69072
2018,45489,0.00885185,3.69609
2020,45542,0.00880772,3.70146
2022,45595,0.00880772,3.70664
2024,45645,0.00881949,3.71172
2026,45699,0.00881949,3.71709
2028,45754,0.00873123,3.72256
2030,45809,0.00873123,3.728125
2032,45901,0.0086871,3.73721
2034,45952,0.00874201,3.74238
2036,46005,0.00874201,3.74766
2038,46060,0.00876947,3.75322
2040,46130,0.00886362,3.76025
2042,46183,0.00886362,3.76543
2044,46238,0.0089352,3.7709
2046,46322,0.00885773,3.77617
2048,46394,0.00885773,3.78662
2050,46450,0.00879105,3.79209
2052,46504,0.00875868,3.79756
2054,46562,0.00875868,3.80342
2056,46616,0.00876947,3.80879
2058,46671,0.00876947,3.81436
2060,46726,0.00878026,3.81973
2062,46778,0.00878026,3.825
2064,46831,0.00884106,3.83027
2066,46886,0.00906171,3.83574
2068,46939,0.00906171,3.84102
2070,46992,0.00922744,3.84639
2072,47047,0.00922744,3.85186
2074,47102,0.00934905,3.85732
2076,47153,0.00934905,3.8624
2078,47205,0.00944809,3.86768
2080,47261,0.00941475,3.87334
2082,47316,0.00941475,3.87871
2084,47368,0.00940985,3.88398
2086,47471,0.00949811,3.89424
2088,47535,0.00949811,3.90059
2090,47588,0.00961382,3.90596
2092,47642,0.00970208,3.91133
2094,47695,0.00970208,3.9167
2096,47751,0.00974033,3.92227
2098,47805,0.00974033,3.92773
2100,47859,0.00970797,3.93311
2102,47914,0.00970797,3.93848
2104,47967,0.00966874,3.94385
2106,48021,0.00965795,3.94932
2108,48077,0.00965795,3.95488
2110,48133,0.00973543,3.96035
2112,48193,0.00973543,3.96641
2114,48248,0.00979623,3.97197
2116,48303,0.00984526,3.97744
2118,48355,0.00984526,3.98271
2120,48413,0.00990116,3.98848
2122,48467,0.00990116,3.99385
2124,48527,0.00994529,3.9999
2126,48636,0.010061,4.01074
2128,48688,0.0100169,4.01602
2130,48743,0.0100169,4.02148
2132,48795,0.00991195,4.02666
2134,48852,0.00991195,4.03223
2136,48911,0.009757,4.03828
2138,48967,0.009757,4.04385
2140,49024,0.00955302,4.04961
2142,49081,0.00948732,4.05527
2144,49140,0.00948732,4.06113
2146,49194,0.0093765,4.0666
2148,49248,0.0093765,4.07197
2150,49304,0.00932159,4.07754
2152,49362,0.00934316,4.0833
2154,49417,0.00934316,4.08877
2156,49471,0.00939808,4.09424
2158,49528,0.00939808,4.1
2160,49587,0.00942063,4.10586
2162,49640,0.00933826,4.11123
2164,49696,0.00933826,4.1167
2166,49810,0.00923333,4.12813
2168,49864,0.00915585,4.1335
2170,49918,0.00915585,4.13896
2172,49975,0.00914997,4.14473
2174,50030,0.0091892,4.1501
2176,50087,0.0091892,4.15586
2178,50144,0.00915585,4.16152
2180,50202,0.00915585,4.16729
2182,50260,0.00906759,4.17324
2184,50312,0.00899012,4.17832
2186,50363,0.00899012,4.1834
2188,50416,0.00890775,4.18867
2190,50472,0.00890775,4.19434
2192,50527,0.00892442,4.1998
2194,50583,0.00892442,4.20547
2196,50637,0.00892442,4.21094
2198,50696,0.00890775,4.2167
2200,50751,0.00890775,4.22227
2202,50809,0.00899012,4.22803
2204,50864,0.00899012,4.23359
2206,50968,0.00910094,4.24395
2208,51093,0.00921077,4.25645
2210,51150,0.00921077,4.26211
2212,51204,0.00916076,4.26748
2214,51256,0.00904504,4.27275
2216,51313,0.00904504,4.27842
2218,51367,0.00897933,4.28379
2220,51423,0.00897933,4.28945
2222,51478,0.00885185,4.29492
2224,51535,0.00885185,4.30068
2226,51591,0.00883518,4.30625
2228,51645,0.00881949,4.31162
2230,51697,0.00881949,4.3168
2232,51757,0.0088136,4.32285
2234,51813,0.0088136,4.32842
2236,51868,0.00880772,4.33389
2238,51926,0.00879693,4.33975
2240,51981,0.00879693,4.34521
2242,52034,0.00879693,4.35049
2244,52089,0.00879693,4.35605
2246,52204,0.00879693,4.36758
2248,52262,0.00881949,4.37334
2250,52314,0.00890186,4.37852
2252,52368,0.00890186,4.38398
2254,52426,0.00896855,4.38975
2256,52478,0.00896855,4.39492
2258,52535,0.00895678,4.40059
2260,52591,0.00891853,4.40625
2262,52648,0.00891853,4.41191
2264,52704,0.00886852,4.41758
2266,52758,0.00886852,4.42295
2268,52813,0.00882439,4.42842
2270,52868,0.00882439,4.43389
2272,52926,0.00881949,4.43975
2274,52981,0.00886852,4.44521
2276,53035,0.00886852,4.45068
2278,53089,0.0088744,4.45605
2280,53146,0.0088744,4.46172
2282,53201,0.00888519,4.46719
2284,53254,0.00886362,4.47256
2286,53313,0.00886362,4.47842
2288,53419,0.00876947,4.48906
2290,53477,0.00867533,4.49482
2292,53533,0.00867533,4.50039
2294,53591,0.00864787,4.50625
2296,53645,0.00868121,4.51162
2298,53700,0.00868121,4.51709
2300,53757,0.00879105,4.52285
2302,53814,0.00879105,4.52842
2304,53870,0.00889107,4.53408
2306,53930,0.00889598,4.54014
2308,53985,0.00889598,4.54561
2310,54044,0.00891265,4.55146
2312,54102,0.00891265,4.55732
2314,54160,0.00885185,4.56309
2316,54214,0.00876947,4.56855
2318,54271,0.00876947,4.57422
2320,54327,0.00877536,4.57979
2322,54385,0.00877536,4.58564
2324,54442,0.00884694,4.59141
2326,54496,0.00897933,4.59678
2328,54552,0.00897933,4.60234
2330,54661,0.00908917,4.61318
2332,54716,0.00913918,4.61875
2334,54776,0.00913918,4.62471
2336,54831,0.00908917,4.63027
2338,54888,0.00900091,4.63594
2340,54976,0.00894011,4.64414
2342,55031,0.00894011,4.6502
2344,55085,0.0089352,4.65557
2346,55144,0.0089352,4.66143
2348,55198,0.00898424,4.66689
2350,55254,0.00904504,4.67256
2352,55310,0.00904504,4.67813
2354,55365,0.00904504,4.68359
2356,55419,0.00904504,4.68906
2358,55474,0.00908427,4.69453
2360,55533,0.00908427,4.70039
2362,55594,0.00909505,4.70654
2364,55647,0.00902837,4.71182
2366,55702,0.00902837,4.71729
2368,55819,0.00904504,4.729
2370,55876,0.00897345,4.73477
2372,55933,0.00892932,4.74043
2374,55988,0.00892932,4.7459
2376,56044,0.00896855,4.75156
2378,56102,0.00896855,4.75723
2380,56161,0.00896855,4.76318
2382,56217,0.00908427,4.76885
2384,56279,0.00908427,4.775
2386,56334,0.00913918,4.78047
2388,56392,0.00913918,4.78633
2390,56449,0.00922744,4.79199
2392,56508,0.00938239,4.79785
2394,56577,0.00938239,4.8043
2396,56684,0.00933826,4.81553
2398,56749,0.00933826,4.82207
2400,56808,0.00919998,4.82783
2402,56865,0.00919998,4.83359
2404,56971,0.00902837,4.84424
2406,57028,0.00902837,4.8499
2408,57085,0.00914507,4.85566
2410,57143,0.00914507,4.86143
2412,57201,0.00939318,4.86719
2414,57261,0.00955302,4.87314
2416,57318,0.00955302,4.87891
2418,57377,0.00973543,4.88486
2420,57432,0.00973543,4.89033
2422,57491,0.00980113,4.89629
2424,57549,0.00980113,4.90205
2426,57611,0.00980113,4.9082
2428,57668,0.00986193,4.91387
2430,57727,0.00986193,4.91982
2432,57784,0.00982369,4.92549
2434,57844,0.00976289,4.93154
2436,57901,0.00976289,4.93721
2438,57963,0.0097521,4.94336
2440,58019,0.0097521,4.94902
2442,58078,0.0097521,4.95488
2444,58195,0.009757,4.9666
2446,58252,0.0097521,4.97236
2448,58309,0.00980702,4.97803
2450,58366,0.00980702,4.98369
2452,58427,0.0098786,4.98975
2454,58484,0.0098786,4.99473
2456,58541,0.00992862,4.99805
2458,58596,0.00995019,4.9998
2459,58625,0.00995019,5.0