File: tensile_tests/04.03.25_WT_idx2.csv
,Time,Force (Newtons),Distance (millimeters)
0,3,0.000269636,0.0
2,55,0.00033534,0.0
4,84,0.00033534,0.0
6,112,0.00033534,0.0
8,140,0.000479498,0.0
10,167,0.000479498,0.0
12,194,0.000479498,0.0
14,222,0.000479498,0.0
16,247,0.000545203,0.0
18,272,0.000545203,0.0
20,302,0.000545203,0.0
22,329,0.000495189,0.0
24,360,0.000495189,0.0
26,390,0.000495189,0.0
28,422,0.0004236,0.0
30,452,0.0004236,0.0
32,483,0.0004236,0.0
34,512,0.0004236,0.0
36,543,0.000352012,0.0
38,575,0.000352012,0.0
40,605,0.000352012,0.0
42,634,0.00029121,0.0
44,665,0.00029121,0.0
46,693,0.00029121,0.0
48,720,0.000252964,0.0
50,751,0.000252964,0.0
52,781,0.000252964,0.0
54,812,0.000219622,0.0
56,839,0.000219622,0.0
58,869,0.000219622,0.0
60,897,0.000219622,0.0
62,925,0.000175492,0.0
64,954,0.000175492,0.0
66,981,0.000175492,0.0
68,1009,0.000148033,0.0
70,1040,0.000148033,0.0
72,1069,0.000148033,0.0
74,1101,0.000131362,0.0
76,1130,0.000131362,0.0
78,1160,0.000131362,0.0
80,1186,0.000142149,0.0
82,1214,0.000142149,0.0
84,1243,0.000142149,0.0
86,1272,0.000142149,0.0
88,1301,7.64448e-05,0.0
90,1332,7.64448e-05,0.0
92,1359,7.64448e-05,0.0
94,1385,-1.02774e-06,0.0
96,1415,-1.02774e-06,0.0
98,1443,-1.02774e-06,0.0
100,1473,-1.7699e-05,0.0
102,1502,-1.7699e-05,0.0
104,1531,-1.7699e-05,0.0
106,1560,-1.7699e-05,0.0
108,1588,-1.7699e-05,0.0
110,1617,-1.7699e-05,0.0
112,1645,-1.7699e-05,0.0
114,1673,0.000142149,0.0
116,1702,0.000142149,0.0
118,1731,0.000142149,0.0
120,1760,0.000286307,0.0
122,1789,0.000286307,0.0
124,1820,0.000286307,0.0
126,1850,0.000330437,0.0
128,1880,0.000330437,0.0
130,1909,0.000330437,0.0
132,1935,0.000330437,0.0
134,1964,0.000362799,0.0
136,1993,0.000362799,0.0
138,2019,0.000362799,0.0
140,2046,0.000219622,0.0
142,2075,0.000219622,0.0
144,2105,0.000219622,0.0
146,2132,0.000219622,0.0
148,2162,0.000103903,0.0
150,2191,0.000103903,0.0
152,2220,0.000103903,0.0
154,2250,0.000109787,0.0
156,2278,0.000109787,0.0
158,2307,0.000109787,0.0
160,2334,0.000114691,0.0
162,2365,0.000114691,0.0
164,2392,0.000114691,0.0
166,2423,0.000247081,0.0
168,2452,0.000247081,0.0
170,2482,0.000247081,0.0
172,2511,0.000247081,0.0
174,2542,0.000385354,0.0
176,2570,0.000385354,0.0
178,2597,0.000385354,0.0
180,2626,0.000352012,0.0
182,2656,0.000352012,0.0
184,2685,0.000352012,0.0
186,2717,0.000385354,0.0
188,2749,0.000385354,0.0
190,2776,0.000385354,0.0
192,2802,0.000462827,0.0
194,2830,0.000462827,0.0
196,2860,0.000462827,0.0
198,2892,0.000462827,0.0
200,2920,0.000402026,0.0
202,2949,0.000402026,0.0
204,2978,0.000402026,0.0
206,3009,0.000429484,0.0
208,3041,0.000429484,0.0
210,3073,0.000429484,0.0
212,3104,0.000446156,0.0
214,3132,0.000446156,0.0
216,3163,0.000446156,0.0
218,3191,0.000418697,0.0
220,3220,0.000418697,0.0
222,3250,0.000418697,0.0
224,3279,0.000540299,0.0
226,3309,0.000540299,0.0
228,3341,0.000540299,0.0
230,3370,0.000540299,0.0
232,3399,0.000589333,0.0
234,3428,0.000589333,0.0
236,3456,0.000589333,0.0
238,3484,0.000490285,0.0
240,3510,0.000490285,0.0
242,3537,0.000490285,0.0
244,3563,0.000412813,0.0
246,3591,0.000412813,0.0
248,3619,0.000412813,0.0
250,3647,0.000412813,0.0
252,3677,0.000324553,0.0
254,3703,0.000324553,0.0
256,3730,0.000324553,0.0
258,3756,0.000318669,0.0
260,3785,0.000318669,0.0
262,3811,0.000318669,0.0
264,3840,0.000318669,0.0
266,3869,0.000479498,0.0
268,3896,0.000479498,0.0
270,3926,0.000479498,0.0
272,3954,0.00060012,0.0
274,3982,0.00060012,0.0
276,4007,0.00060012,0.0
278,4036,0.00060012,0.0
280,4064,0.000660921,0.0
282,4091,0.000660921,0.0
284,4119,0.000660921,0.0
286,4147,0.000666805,0.0
288,4178,0.000666805,0.0
290,4206,0.000666805,0.0
292,4234,0.000666805,0.0
294,4263,0.000666805,0.0
296,4288,0.000666805,0.0
298,4412,0.00068838,0.0
300,4451,0.000749181,0.0
302,4480,0.000749181,0.0
304,4508,0.000749181,0.0
306,4535,0.000815866,0.0
308,4561,0.000815866,0.0
310,4589,0.000815866,0.0
312,4618,0.000870783,0.0
314,4647,0.000870783,0.0
316,4673,0.000870783,0.0
318,4700,0.000870783,0.0
320,4728,0.000815866,0.0
322,4756,0.000815866,0.0
324,4783,0.000815866,0.0
326,4811,0.000765852,0.0
328,4839,0.000765852,0.0
330,4866,0.000765852,0.0
332,4894,0.000765852,0.0
334,4920,0.000738394,0.0
336,4948,0.000738394,0.0
338,4978,0.000738394,0.0
340,5004,0.000616791,0.0
342,5033,0.000616791,0.0
344,5060,0.000616791,0.0
346,5087,0.000484401,0.0
348,5114,0.000484401,0.0
350,5143,0.000484401,0.0
352,5170,0.000484401,0.0
354,5198,0.000406929,0.0
356,5226,0.000406929,0.0
358,5255,0.000406929,0.0
360,5283,0.000391238,0.0
362,5312,0.000391238,0.0
364,5340,0.000391238,0.0
366,5369,0.000391238,0.0
368,5396,0.00051186,0.0
370,5423,0.00051186,0.0
372,5451,0.00051186,0.0
374,5479,0.000639347,0.0
376,5505,0.000639347,0.0
378,5535,0.000639347,0.0
380,5565,0.00073251,0.0
382,5594,0.00073251,0.0
384,5622,0.00073251,0.0
386,5649,0.00073251,0.0
388,5678,0.000837441,0.0
390,5706,0.000837441,0.0
392,5734,0.000837441,0.0
394,5761,0.000826654,0.0
396,5791,0.000826654,0.0
398,5818,0.000826654,0.0
400,5844,0.000826654,0.0
402,5872,0.000832538,0.0
404,5898,0.000832538,0.0
406,5926,0.000832538,0.0
408,5956,0.000721722,0.0
410,5983,0.000721722,0.0
412,6012,0.000721722,0.0
414,6040,0.000561874,0.0
416,6066,0.000561874,0.0
418,6093,0.000561874,0.0
420,6121,0.000561874,0.0
422,6148,0.000506957,0.0
424,6175,0.000506957,0.0
426,6202,0.000506957,0.0
428,6229,0.000584429,0.0
430,6255,0.000584429,0.0
432,6280,0.000584429,0.0
434,6308,0.000584429,0.0
436,6335,0.000589333,0.0
438,6364,0.000589333,0.0
440,6392,0.000589333,0.0
442,6421,0.000567758,0.0
444,6449,0.000567758,0.0
446,6478,0.000567758,0.0
448,6506,0.000567758,0.0
450,6533,0.000567758,0.0
452,6560,0.000567758,0.0
454,6591,0.000567758,0.0
456,6619,0.000490285,0.0
458,6648,0.000490285,0.0
460,6676,0.000490285,0.0
462,6703,0.000551087,0.0
464,6732,0.000551087,0.0
466,6759,0.000551087,0.0
468,6791,0.000551087,0.0
470,6819,0.000567758,0.0
472,6847,0.000567758,0.0
474,6876,0.000567758,0.0
476,6901,0.000506957,0.0
478,6928,0.000506957,0.0
480,6955,0.000506957,0.0
482,6983,0.000506957,0.0
484,7012,0.000456943,0.0
486,7042,0.000456943,0.0
488,7073,0.000456943,0.0
490,7104,0.000534415,0.0
492,7134,0.000534415,0.0
494,7164,0.000534415,0.0
496,7193,0.000616791,0.0
498,7223,0.000616791,0.0
500,7273,0.000611888,9.765625e-05
502,7322,0.000611888,0.0001953125
504,7362,0.000611888,0.000390625
506,7402,0.000650134,0.0005859375
508,7443,0.000650134,0.0009765625
510,7487,0.000606004,0.00136719
512,7524,0.000606004,0.00175781
514,7563,0.000628559,0.00224609
516,7603,0.000628559,0.00283203
518,7642,0.000628559,0.00351562
520,7686,0.000716819,0.004296875
522,7726,0.000716819,0.00517578
524,7767,0.000832538,0.00595703
526,7806,0.000832538,0.00693359
528,7847,0.00106397,0.00791016
530,7889,0.00106397,0.00908203
532,7929,0.00106397,0.0102539
534,7966,0.00138956,0.0113281
536,8005,0.00138956,0.0125977
538,8044,0.00189166,0.0139648
540,8085,0.00189166,0.0154297
542,8129,0.00247711,0.0170898
544,8169,0.00247711,0.0186523
546,8208,0.00247711,0.0202148
548,8249,0.00304001,0.0219727
550,8338,0.00366372,0.0259766
552,8383,0.00366372,0.028125
554,8424,0.00429821,0.0302734
556,8465,0.00429821,0.0323242
558,8505,0.00429821,0.0344727
560,8547,0.00488268,0.0368164
562,8589,0.00488268,0.0391602
564,8633,0.00550639,0.0417969
566,8677,0.00550639,0.0444336
568,8718,0.0061801,0.0470703
570,8759,0.0061801,0.049707
572,8804,0.00686951,0.0526367
574,8845,0.00686951,0.05546875
576,8884,0.00686951,0.0582031
578,8924,0.00761482,0.0611328
580,8964,0.00761482,0.0640625
582,9007,0.00829932,0.0671875
584,9048,0.00829932,0.0704102
586,9087,0.00892793,0.0735352
588,9127,0.00892793,0.0767578
590,9165,0.00892793,0.0797852
592,9205,0.00953006,0.0831055
594,9247,0.00953006,0.0867188
596,9288,0.0101037,0.090332
598,9331,0.0101037,0.0941406
600,9374,0.0107716,0.0980469
602,9411,0.0107716,0.1015625
604,9454,0.0107716,0.105566
606,9495,0.0115218,0.10957
608,9536,0.0115218,0.113574
610,9576,0.0122563,0.117578
612,9621,0.0122563,0.12207
614,9665,0.0129898,0.126465
616,9705,0.0129898,0.130469
618,9747,0.0137244,0.134668
620,9789,0.0137244,0.138867
622,9835,0.0137244,0.143457
624,9876,0.0143206,0.147559
626,9915,0.0143206,0.1515625
628,9955,0.0149659,0.155469
630,9997,0.0149659,0.159668
632,10037,0.0157053,0.163672
634,10076,0.0157053,0.167578
636,10118,0.0157053,0.17168
638,10159,0.0164231,0.175879
640,10199,0.0164231,0.179785
642,10241,0.0172616,0.184082
644,10282,0.0172616,0.188184
646,10331,0.0179795,0.193066
648,10372,0.0179795,0.197168
650,10415,0.0187297,0.201465
652,10456,0.0187297,0.205566
654,10499,0.0187297,0.209863
656,10538,0.0196289,0.21377
658,10581,0.0196289,0.218066
660,10622,0.0204351,0.222168
662,10667,0.0204351,0.22666
664,10712,0.0213294,0.231152
666,10756,0.0213294,0.235547
668,10799,0.0222179,0.239941
670,10846,0.0222179,0.244531
672,10888,0.0222179,0.24873
674,10931,0.0230672,0.253027
676,10972,0.0230672,0.257129
678,11013,0.0240831,0.261328
680,11056,0.0240831,0.265527
682,11104,0.0250873,0.2703125
684,11148,0.0250873,0.274707
686,11193,0.0261141,0.279297
688,11232,0.0261141,0.283105
690,11270,0.0271958,0.287012
692,11314,0.0271958,0.291309
694,11358,0.0271958,0.295801
696,11401,0.028399,0.300098
698,11443,0.028399,0.304297
700,11482,0.0298112,0.308105
702,11522,0.0298112,0.312207
704,11565,0.031241,0.316406
706,11607,0.031241,0.320703
708,11648,0.031241,0.324707
710,11689,0.0326757,0.328809
712,11735,0.0326757,0.333398
714,11781,0.0342379,0.338086
716,11828,0.0342379,0.342676
718,11870,0.035855,0.346875
720,11910,0.035855,0.350977
722,11951,0.037632,0.355078
724,11991,0.037632,0.359082
726,12033,0.0395747,0.363281
728,12081,0.0395747,0.368066
730,12124,0.0395747,0.372363
732,12206,0.0414615,0.380566
734,12249,0.0435758,0.384863
736,12289,0.0435758,0.388867
738,12332,0.0459873,0.393262
740,12377,0.0459873,0.397656
742,12420,0.0486145,0.402051
744,12462,0.0486145,0.406152
746,12506,0.0486145,0.410547
748,12549,0.0515996,0.414844
750,12588,0.0515996,0.41875
752,12630,0.0546632,0.422852
754,12674,0.0546632,0.427246
756,12718,0.0577807,0.431738
758,12760,0.0577807,0.4359375
760,12804,0.0611307,0.440332
762,12846,0.0611307,0.444531
764,12893,0.0646081,0.449219
766,12949,0.0646081,0.454883
768,13000,0.0685043,0.459863
770,13051,0.0685043,0.465039
772,13096,0.0725662,0.469629
774,13142,0.0725662,0.474121
776,13188,0.0767546,0.478809
778,13233,0.0767546,0.483203
780,13280,0.0814844,0.487891
782,13400,0.086324,0.5
784,13449,0.086324,0.504785
786,13499,0.0917108,0.509863
788,13549,0.0917108,0.514844
790,13591,0.097533,0.519043
792,13635,0.097533,0.5234375
794,13678,0.103389,0.527734
796,13719,0.103389,0.531836
798,13759,0.109834,0.53584
800,13801,0.109834,0.540039
802,13843,0.116539,0.544238
804,13888,0.116539,0.54873
806,13933,0.116539,0.553223
808,13974,0.123714,0.557324
810,14017,0.123714,0.561719
812,14060,0.131512,0.565918
814,14103,0.131512,0.570215
816,14148,0.139228,0.574707
818,14193,0.139228,0.579199
820,14239,0.147611,0.583789
822,14288,0.147611,0.58877
824,14420,0.165679,0.601855
826,14466,0.165679,0.606543
828,14513,0.176087,0.61123
830,14556,0.176087,0.615527
832,14599,0.176087,0.619922
834,14642,0.18643,0.624121
836,14684,0.18643,0.62832
838,14731,0.197203,0.633105
840,14776,0.197203,0.6375
842,14823,0.20887,0.642285
844,14870,0.20887,0.646973
846,14914,0.220586,0.651367
848,14955,0.220586,0.655469
850,14998,0.233544,0.659766
852,15040,0.233544,0.663965
854,15083,0.246977,0.668262
856,15128,0.246977,0.672754
858,15171,0.246977,0.677051
860,15214,0.260708,0.681348
862,15256,0.260708,0.685547
864,15297,0.276105,0.689648
866,15342,0.276105,0.694141
868,15386,0.291988,0.698535
870,15426,0.291988,0.702539
872,15472,0.309312,0.707227
874,15516,0.309312,0.711523
876,15559,0.327838,0.71582
878,15601,0.327838,0.72002
880,15643,0.327838,0.724219
882,15686,0.346067,0.728516
884,15728,0.346067,0.732715
886,15772,0.365913,0.737109
888,15815,0.365913,0.741406
890,15859,0.386178,0.745898
892,15903,0.386178,0.750293
894,15948,0.407403,0.754785
896,15990,0.407403,0.758887
898,16035,0.430627,0.763477
900,16080,0.430627,0.767969
902,16123,0.453651,0.772266
904,16167,0.453651,0.77666
906,16208,0.453651,0.780762
908,16249,0.478226,0.784863
910,16292,0.478226,0.78916
912,16340,0.50417,0.793848
914,16383,0.50417,0.798242
916,16426,0.530572,0.802637
918,16471,0.530572,0.807031
920,16513,0.559275,0.811328
922,16558,0.559275,0.815723
924,16602,0.587808,0.820117
926,16647,0.587808,0.824609
928,16690,0.587808,0.829004
930,16782,0.616571,0.838184
932,16826,0.646759,0.84248
934,16868,0.646759,0.846777
936,16913,0.676787,0.85127
938,16959,0.676787,0.855859
940,17002,0.709094,0.860156
942,17045,0.709094,0.864355
944,17086,0.742224,0.868555
946,17132,0.742224,0.873145
948,17174,0.775359,0.877344
950,17219,0.775359,0.881836
952,17264,0.775359,0.886328
954,17306,0.810613,0.890527
956,17349,0.810613,0.894824
958,17392,0.845734,0.899121
960,17436,0.845734,0.903516
962,17479,0.882264,0.907812
964,17523,0.882264,0.912207
966,17567,0.920123,0.916699
968,17612,0.920123,0.921191
970,17700,0.957149,0.929883
972,17745,0.99616,0.934473
974,17787,0.99616,0.938672
976,17828,0.99616,0.942773
978,17872,1.03558,0.947168
980,17919,1.03558,0.951855
982,17962,1.07576,0.956055
984,18005,1.07576,0.960449
986,18048,1.11787,0.964746
988,18090,1.11787,0.968945
990,18133,1.15798,0.973145
992,18179,1.15798,0.977734
994,18222,1.19847,0.982129
996,18266,1.19847,0.986523
998,18313,1.23654,0.991211
1000,18360,1.23654,0.995898
1002,18404,1.23654,1.00039
1004,18450,1.2621,1.00488
1006,18495,1.2621,1.00947
1008,18539,1.27716,1.01387
1010,18633,1.29705,1.02324
1012,18679,1.29705,1.02783
1014,18724,1.32452,1.03223
1016,18766,1.32452,1.03652
1018,18807,1.36725,1.040625
1020,18849,1.36725,1.04482
1022,18917,1.42327,1.05156
1024,18966,1.42327,1.05654
1026,19012,1.47722,1.06113
1028,19057,1.47722,1.065625
1030,19102,1.52785,1.07012
1032,19149,1.52785,1.0748
1034,19197,1.57708,1.07959
1036,19241,1.57708,1.08398
1038,19289,1.62924,1.08877
1040,19341,1.62924,1.09395
1042,19386,1.68099,1.09854
1044,19432,1.68099,1.103125
1046,19478,1.73435,1.10771
1048,19578,1.78895,1.11777
1050,19622,1.78895,1.12217
1052,19667,1.84077,1.12666
1054,19713,1.84077,1.13125
1056,19756,1.89402,1.13555
1058,19807,1.89402,1.140625
1060,19853,1.94604,1.14521
1062,19896,1.94604,1.14951
1064,19941,1.99702,1.1541
1066,19987,1.99702,1.15859
1068,20031,2.04774,1.16299
1070,20080,2.04774,1.16797
1072,20124,2.09099,1.17227
1074,20169,2.09099,1.17686
1076,20214,2.09099,1.18135
1078,20258,2.13427,1.18564
1080,20303,2.13427,1.19023
1082,20348,2.17982,1.19473
1084,20395,2.17982,1.19941
1086,20438,2.22761,1.20371
1088,20527,2.28396,1.2127
1090,20582,2.28396,1.21816
1092,20629,2.33981,1.22275
1094,20674,2.33981,1.22734
1096,20720,2.39458,1.23184
1098,20764,2.39458,1.23633
1100,20807,2.45051,1.240625
1102,20852,2.45051,1.24512
1104,20898,2.5043,1.24971
1106,20942,2.5043,1.2541
1108,20986,2.56122,1.2585
1110,21029,2.56122,1.26279
1112,21074,2.61758,1.26729
1114,21119,2.61758,1.271875
1116,21162,2.61758,1.27617
1118,21205,2.67274,1.28047
1120,21251,2.67274,1.28496
1122,21296,2.72944,1.28955
1124,21343,2.72944,1.29424
1126,21437,2.78319,1.29902
1128,21488,2.83976,1.30869
1130,21535,2.83976,1.31338
1132,21578,2.89746,1.31777
1134,21625,2.89746,1.32236
1136,21671,2.95311,1.32705
1138,21716,2.95311,1.33154
1140,21763,3.01155,1.33613
1142,21807,3.01155,1.34053
1144,21850,3.0675,1.34492
1146,21897,3.0675,1.34961
1148,21941,3.1229,1.354
1150,21987,3.1229,1.35859
1152,22033,3.18054,1.36328
1154,22078,3.18054,1.36768
1156,22124,3.2355,1.37227
1158,22169,3.2355,1.37676
1160,22215,3.29301,1.38145
1162,22260,3.29301,1.38594
1164,22303,3.29301,1.39023
1166,22422,3.40845,1.40215
1168,22470,3.40845,1.40693
1170,22516,3.4687,1.41152
1172,22565,3.4687,1.41641
1174,22624,3.52594,1.42236
1176,22670,3.52594,1.42695
1178,22715,3.58293,1.43145
1180,22760,3.58293,1.43594
1182,22807,3.63874,1.440625
1184,22852,3.63874,1.44512
1186,22898,3.69113,1.44971
1188,22944,3.69113,1.4543
1190,22992,3.74728,1.45908
1192,23036,3.74728,1.46357
1194,23081,3.80097,1.46807
1196,23125,3.80097,1.47236
1198,23171,3.84976,1.47695
1200,23217,3.84976,1.48164
1202,23264,3.9035,1.48623
1204,23361,3.95512,1.496
1206,23407,3.95512,1.50068
1208,23453,4.00953,1.50518
1210,23498,4.00953,1.50967
1212,23545,4.00953,1.51436
1214,23593,4.0696,1.51914
1216,23640,4.0696,1.52393
1218,23688,4.12524,1.52871
1220,23735,4.12524,1.5335
1222,23781,4.18141,1.53799
1224,23826,4.18141,1.54248
1226,23871,4.23412,1.54697
1228,23915,4.23412,1.55146
1230,23962,4.28381,1.55615
1232,24010,4.28381,1.56094
1234,24058,4.33654,1.56572
1236,24107,4.33654,1.57061
1238,24152,4.38555,1.5751
1240,24199,4.38555,1.57979
1242,24299,4.43239,1.58975
1244,24348,4.47934,1.59473
1246,24391,4.47934,1.59902
1248,24439,4.52477,1.60381
1250,24486,4.52477,1.6085
1252,24534,4.5739,1.61328
1254,24579,4.5739,1.61777
1256,24624,4.62425,1.62236
1258,24672,4.62425,1.62705
1260,24716,4.67343,1.63154
1262,24766,4.67343,1.63643
1264,24816,4.72243,1.6415
1266,24864,4.72243,1.64639
1268,24911,4.76766,1.65107
1270,24960,4.76766,1.65596
1272,25011,4.81324,1.66094
1274,25056,4.81324,1.66553
1276,25100,4.85926,1.66992
1278,25148,4.85926,1.67461
1280,25193,4.89482,1.6792
1282,25291,4.9196,1.68906
1284,25343,4.9196,1.69424
1286,25387,4.93874,1.69854
1288,25432,4.93874,1.703125
1290,25478,4.95948,1.70771
1292,25527,4.95948,1.7126
1294,25572,4.99194,1.71709
1296,25617,4.99194,1.72158
1298,25667,5.03728,1.72656
1300,25713,5.03728,1.73125
1302,25761,5.09293,1.73594
1304,25808,5.09293,1.74072
1306,25855,5.1501,1.74541
1308,25901,5.1501,1.75
1310,25950,5.20689,1.75488
1312,25998,5.20689,1.75967
1314,26047,5.26492,1.76455
1316,26093,5.26492,1.76914
1318,26139,5.31815,1.77373
1320,26184,5.31815,1.77832
1322,26230,5.36918,1.78291
1324,26335,5.4152,1.79346
1326,26385,5.4152,1.79834
1328,26430,5.45853,1.80293
1330,26477,5.45853,1.80762
1332,26554,5.50581,1.81523
1334,26609,5.55243,1.8208
1336,26656,5.55243,1.82549
1338,26702,5.60238,1.83008
1340,26749,5.60238,1.83477
1342,26794,5.6526,1.83926
1344,26841,5.6526,1.84404
1346,26888,5.69945,1.84863
1348,26935,5.69945,1.85342
1350,26982,5.7499,1.85801
1352,27031,5.7499,1.86299
1354,27080,5.79849,1.86797
1356,27127,5.79849,1.87256
1358,27177,5.8424,1.87754
1360,27221,5.8424,1.88203
1362,27331,5.88525,1.89199
1364,27381,5.92234,1.89795
1366,27427,5.92234,1.90264
1368,27475,5.95468,1.90742
1370,27522,5.95468,1.91201
1372,27569,5.978,1.9168
1374,27616,5.978,1.92148
1376,27664,5.9893,1.92627
1378,27712,5.9893,1.93115
1380,27759,5.98858,1.93574
1382,27806,5.98858,1.94053
1384,27853,5.98012,1.94521
1386,27899,5.98012,1.9498
1388,27944,5.9817,1.9543
1390,27992,5.9817,1.95898
1392,28042,5.97454,1.96406
1394,28087,5.97454,1.96865
1396,28134,5.95689,1.97334
1398,28181,5.95689,1.97793
1400,28229,5.94364,1.98281
1402,28333,5.92147,1.99307
1404,28382,5.92147,1.99805
1406,28429,5.91155,2.00283
1408,28476,5.91155,2.00742
1410,28524,5.91465,2.0123
1412,28572,5.91465,2.01709
1414,28617,5.91856,2.02158
1416,28666,5.91856,2.02646
1418,28717,5.93163,2.03154
1420,28764,5.93163,2.03623
1422,28809,5.94493,2.04072
1424,28856,5.94493,2.04541
1426,28906,5.9447,2.05049
1428,28954,5.9447,2.05527
1430,29002,5.93236,2.06006
1432,29050,5.93236,2.06484
1434,29099,5.91615,2.06982
1436,29148,5.91615,2.07471
1438,29197,5.90808,2.07959
1440,29247,5.90808,2.08457
1442,29350,5.92572,2.09482
1444,29399,5.96039,2.09971
1446,29451,6.00327,2.10498
1448,29499,6.00327,2.10977
1450,29546,6.04608,2.11445
1452,29592,6.04608,2.11904
1454,29642,6.08598,2.12402
1456,29689,6.08598,2.12881
1458,29736,6.12662,2.1334
1460,29783,6.12662,2.13818
1462,29831,6.15844,2.14297
1464,29877,6.15844,2.14756
1466,29926,6.18542,2.15244
1468,29975,6.18542,2.15742
1470,30026,6.20406,2.1625
1472,30076,6.20406,2.16748
1474,30129,6.20959,2.17275
1476,30177,6.20959,2.17754
1478,30226,6.21486,2.18242
1480,30274,6.21486,2.18721
1482,30385,6.21466,2.19834
1484,30435,6.21066,2.20332
1486,30483,6.21066,2.2082
1488,30530,6.19863,2.21279
1490,30576,6.19863,2.21738
1492,30625,6.16851,2.22236
1494,30673,6.16851,2.22715
1496,30721,6.13427,2.23203
1498,30770,6.13427,2.23682
1500,30819,6.09767,2.2418
1502,30864,6.09767,2.24629
1504,30913,6.07076,2.25117
1506,30960,6.07076,2.25586
1508,31006,6.06017,2.26045
1510,31053,6.06017,2.26523
1512,31098,6.05374,2.26963
1514,31148,6.05374,2.27471
1516,31199,6.06016,2.27979
1518,31248,6.06016,2.28467
1520,31344,6.0748,2.29414
1522,31394,6.08927,2.29922
1524,31442,6.08927,2.3041
1526,31493,6.10067,2.30918
1528,31539,6.10067,2.31377
1530,31587,6.07517,2.31855
1532,31633,6.07517,2.32314
1534,31681,6.03348,2.32793
1536,31726,6.03348,2.33252
1538,31773,5.976,2.33711
1540,31821,5.976,2.34199
1542,31867,5.90901,2.34648
1544,31919,5.90901,2.35166
1546,31967,5.86829,2.35654
1548,32016,5.82193,2.36143
1550,32065,5.82193,2.36631
1552,32116,5.78188,2.37148
1554,32163,5.78188,2.37617
1556,32210,5.74119,2.38086
1558,32305,5.67272,2.39033
1560,32356,5.67272,2.39541
1562,32407,5.59219,2.40049
1564,32454,5.59219,2.40527
1566,32502,5.45428,2.41006
1568,32550,5.45428,2.41484
1570,32601,5.21072,2.41992
1572,32651,5.21072,2.425
1574,32701,4.84992,2.42988
1576,32750,4.84992,2.43486
1578,32801,4.46544,2.43994
1580,32850,4.46544,2.44482
1582,32900,4.14523,2.4499
1584,32952,4.14523,2.45508
1586,33000,3.94205,2.45986
1588,33051,3.94205,2.46494
1590,33100,3.88545,2.46982
1592,33151,3.88545,2.4749
1594,33201,3.87911,2.47988
1596,33298,3.86679,2.48965
1598,33450,3.83423,2.50488
1600,33505,3.83423,2.51035
1602,33625,3.81207,2.52227
1604,33677,3.79498,2.52754
1606,33727,3.79498,2.53252
1608,33777,3.78055,2.5375
1610,33828,3.769,2.54258
1612,33876,3.769,2.54746
1614,33926,3.76674,2.55244
1616,33975,3.76674,2.55732
1618,34024,3.76508,2.56221
1620,34074,3.76508,2.56729
1622,34122,3.76174,2.57207
1624,34172,3.76174,2.57705
1626,34219,3.73185,2.58174
1628,34268,3.73185,2.58672
1630,34318,3.66915,2.5916
1632,34367,3.66915,2.59658
1634,34417,3.60587,2.60156
1636,34518,3.55177,2.61162
1638,34568,3.55177,2.6166
1640,34618,3.52596,2.62158
1642,34702,3.49732,2.62949
1644,34754,3.49732,2.63516
1646,34800,3.39499,2.63984
1648,34851,3.39499,2.64492
1650,34902,3.26979,2.65
1652,34953,3.26979,2.65508
1654,35002,3.12599,2.66006
1656,35051,3.12599,2.66494
1658,35100,2.96655,2.66982
1660,35151,2.96655,2.675
1662,35202,2.83686,2.67998
1664,35253,2.70798,2.68506
1666,35300,2.70798,2.68984
1668,35351,2.57697,2.69492
1670,35400,2.57697,2.6999
1672,35452,2.45174,2.70508
1674,35501,2.45174,2.70986
1676,35600,2.34179,2.71982
1678,35649,2.21856,2.72471
1680,35698,2.21856,2.72969
1682,35748,2.07557,2.73467
1684,35798,2.07557,2.73965
1686,35852,1.93547,2.74502
1688,35903,1.93547,2.7501
1690,35951,1.77577,2.75498
1692,36000,1.77577,2.75977
1694,36048,1.58815,2.76465
1696,36099,1.58815,2.76973
1698,36149,1.36115,2.77471
1700,36202,1.36115,2.78008
1702,36251,1.09374,2.78486
1704,36300,0.823979,2.78975
1706,36348,0.823979,2.79463
1708,36394,0.592355,2.79922
1710,36447,0.592355,2.80449
1712,36500,0.43508,2.80986
1714,36610,0.355471,2.81973
1716,36660,0.355471,2.82588
1718,36709,0.324213,2.83076
1720,36758,0.324213,2.83564
1722,36808,0.310382,2.840625
1724,36859,0.310382,2.8458
1726,36908,0.300603,2.85059
1728,36959,0.300603,2.85576
1730,37008,0.293009,2.86055
1732,37058,0.293009,2.865625
1734,37110,0.288881,2.8709
1736,37160,0.288086,2.87588
1738,37209,0.288086,2.88076
1740,37261,0.288026,2.88584
1742,37311,0.288026,2.89092
1744,37360,0.28818,2.8958
1746,37411,0.28818,2.90088
1748,37463,0.287849,2.90615
1750,37513,0.287849,2.91113
1752,37614,0.287556,2.92119
1754,37676,0.286039,2.92744
1756,37727,0.281757,2.93252
1758,37777,0.281757,2.9376
1760,37827,0.276706,2.94258
1762,37877,0.276706,2.94756
1764,37926,0.27164,2.95244
1766,37976,0.27164,2.95752
1768,38029,0.268478,2.9627
1770,38077,0.268478,2.96758
1772,38127,0.267805,2.97256
1774,38176,0.267805,2.97744
1776,38227,0.267026,2.98252
1778,38277,0.267026,2.9875
1780,38327,0.264963,2.99258
1782,38376,0.264963,2.99736
1784,38426,0.261336,3.00244
1786,38479,0.261336,3.00771
1788,38530,0.256596,3.01279
1790,38620,0.251585,3.021875
1792,38669,0.251585,3.02676
1794,38718,0.245989,3.03164
1796,38768,0.245989,3.03662
1798,38817,0.240139,3.0415
1800,38868,0.234521,3.04668
1802,38920,0.234521,3.05186
1804,38970,0.228991,3.05674
1806,39018,0.228991,3.06162
1808,39068,0.22398,3.0666
1810,39117,0.22398,3.07148
1812,39168,0.219151,3.07656
1814,39218,0.219151,3.08154
1816,39272,0.214411,3.08701
1818,39321,0.214411,3.09199
1820,39370,0.210559,3.096875
1822,39421,0.210559,3.10195
1824,39475,0.207269,3.10732
1826,39528,0.207269,3.1127
1828,39635,0.204002,3.12334
1830,39702,0.204002,3.12998
1832,39752,0.203527,3.13496
1834,39807,0.203527,3.14053
1836,39858,0.203212,3.14561
1838,39907,0.203212,3.15059
1840,39955,0.202296,3.15537
1842,40008,0.202296,3.16055
1844,40058,0.200658,3.16553
1846,40107,0.19856,3.17051
1848,40159,0.19856,3.17578
1850,40211,0.195989,3.18086
1852,40264,0.195989,3.18623
1854,40313,0.192705,3.19111
1856,40367,0.192705,3.19648
1858,40419,0.189041,3.20176
1860,40473,0.189041,3.20713
1862,40527,0.186055,3.2125
1864,40579,0.186055,3.21768
1866,40674,0.183438,3.22715
1868,40731,0.180685,3.23291
1870,40784,0.177103,3.23818
1872,40835,0.177103,3.24336
1874,40886,0.172859,3.24844
1876,40937,0.172859,3.25342
1878,40987,0.168422,3.2585
1880,41039,0.168422,3.26367
1882,41094,0.165066,3.26914
1884,41145,0.165066,3.27432
1886,41195,0.162991,3.2793
1888,41246,0.162991,3.284375
1890,41296,0.161115,3.28945
1892,41345,0.158946,3.29434
1894,41399,0.158946,3.29971
1896,41450,0.155563,3.30488
1898,41502,0.155563,3.30996
1900,41553,0.151534,3.31504
1902,41603,0.151534,3.32012
1904,41695,0.146457,3.3293
1906,41754,0.141518,3.33516
1908,41804,0.141518,3.34023
1910,41855,0.13814,3.34521
1912,41903,0.13814,3.3501
1914,41954,0.135381,3.35527
1916,42003,0.135381,3.36006
1918,42052,0.133698,3.36504
1920,42102,0.133698,3.37002
1922,42151,0.131705,3.3749
1924,42201,0.128389,3.37998
1926,42254,0.128389,3.38516
1928,42304,0.124497,3.39023
1930,42358,0.124497,3.39551
1932,42412,0.120458,3.40098
1934,42464,0.120458,3.40615
1936,42520,0.117119,3.41182
1938,42571,0.117119,3.41699
1940,42624,0.114901,3.42217
1942,42676,0.113294,3.42744
1944,42786,0.111286,3.43838
1946,42840,0.111286,3.44375
1948,42893,0.108322,3.44912
1950,42945,0.108322,3.4543
1952,43030,0.103542,3.46279
1954,43085,0.0969916,3.46836
1956,43138,0.0969916,3.47363
1958,43189,0.089315,3.47861
1960,43240,0.089315,3.48379
1962,43292,0.080287,3.48896
1964,43344,0.0700773,3.49414
1966,43394,0.0700773,3.49922
1968,43445,0.059591,3.5043
1970,43498,0.059591,3.50957
1972,43549,0.0498834,3.51465
1974,43602,0.0498834,3.52002
1976,43654,0.0423225,3.5252
1978,43702,0.0423225,3.52998
1980,43754,0.0373947,3.53525
1982,43855,0.0345194,3.54521
1984,43921,0.0322727,3.55186
1986,43973,0.0322727,3.55713
1988,44028,0.0297671,3.5626
1990,44081,0.0297671,3.56787
1992,44134,0.0271683,3.57324
1994,44187,0.0271683,3.57852
1996,44237,0.0245686,3.5835
1998,44286,0.0245686,3.58838
2000,44340,0.0225209,3.59385
2002,44394,0.0212519,3.59922
2004,44448,0.0212519,3.60459
2006,44501,0.02049,3.60996
2008,44553,0.02049,3.61514
2010,44604,0.020132,3.62012
2012,44654,0.020132,3.6252
2014,44704,0.0198614,3.63027
2016,44757,0.0198614,3.63555
2018,44812,0.0196456,3.64102
2020,44862,0.0196456,3.646
2022,44968,0.0195132,3.65664
2024,45023,0.0195132,3.66211
2026,45076,0.0194691,3.66738
2028,45130,0.0194691,3.67275
2030,45184,0.0193259,3.67812
2032,45238,0.0193259,3.68359
2034,45290,0.0187356,3.68877
2036,45340,0.0180511,3.69375
2038,45395,0.0180511,3.69922
2040,45447,0.0174715,3.70449
2042,45501,0.0174715,3.70986
2044,45556,0.0169527,3.71533
2046,45609,0.0169527,3.7207
2048,45661,0.0168586,3.72598
2050,45718,0.0168586,3.73154
2052,45772,0.0170076,3.73691
2054,45824,0.0171184,3.74219
2056,45876,0.0171184,3.74736
2058,45927,0.01724,3.75254
2060,45979,0.01724,3.75762
2062,46030,0.017345,3.76279
2064,46137,0.0174882,3.77344
2066,46188,0.0174882,3.77861
2068,46239,0.0176313,3.78369
2070,46294,0.0177255,3.78916
2072,46346,0.0177255,3.79443
2074,46400,0.0177529,3.79971
2076,46451,0.0177529,3.80488
2078,46504,0.0177863,3.81016
2080,46556,0.0177863,3.81533
2082,46609,0.0177637,3.82061
2084,46663,0.0177637,3.82607
2086,46713,0.0177363,3.83105
2088,46764,0.0177363,3.83613
2090,46816,0.0175705,3.84131
2092,46871,0.0168144,3.84688
2094,46922,0.0168144,3.85195
2096,46976,0.0150434,3.85742
2098,47028,0.0150434,3.8626
2100,47078,0.0122337,3.86758
2102,47129,0.0122337,3.87266
2104,47239,0.00929273,3.88359
2106,47293,0.00682048,3.88906
2108,47346,0.00533575,3.89434
2110,47397,0.00533575,3.89951
2112,47448,0.00489445,3.90449
2114,47504,0.00489445,3.91016
2116,47557,0.00477873,3.91543
2118,47612,0.00477873,3.921
2120,47663,0.00470126,3.92607
2122,47718,0.00471205,3.93164
2124,47771,0.00471205,3.93691
2126,47824,0.00473951,3.94219
2128,47878,0.00473951,3.94756
2130,47928,0.00475029,3.95264
2132,47981,0.00475029,3.95791
2134,48035,0.00475029,3.96328
2136,48090,0.00475029,3.96875
2138,48146,0.00470616,3.97441
2140,48200,0.00471793,3.97979
2142,48299,0.00473362,3.98965
2144,48366,0.00473362,3.99629
2146,48422,0.00476206,4.00195
2148,48480,0.00477285,4.00781
2150,48535,0.00477285,4.01318
2152,48588,0.00472872,4.01855
2154,48641,0.00472872,4.02383
2156,48697,0.00470126,4.02949
2158,48748,0.00470126,4.03457
2160,48799,0.00472872,4.03965
2162,48854,0.00472872,4.04521
2164,48909,0.00477285,4.05068
2166,48963,0.0048719,4.05605
2168,49013,0.0048719,4.06104
2170,49065,0.00498271,4.06621
2172,49120,0.00498271,4.07178
2174,49174,0.00506509,4.07715
2176,49230,0.00506509,4.08271
2178,49282,0.00509843,4.08799
2180,49335,0.00509843,4.09326
2182,49443,0.00509255,4.104
2184,49497,0.00509255,4.10947
2186,49553,0.00504842,4.11504
2188,49607,0.00504842,4.12041
2190,49661,0.00504842,4.12588
2192,49716,0.00502096,4.13135
2194,49770,0.00502096,4.13682
2196,49825,0.0049327,4.14219
2198,49878,0.0049327,4.14756
2200,49931,0.00486111,4.15283
2202,49987,0.00486111,4.1584
2204,50040,0.00480031,4.16377
2206,50094,0.00480031,4.16914
2208,50151,0.00485523,4.1748
2210,50205,0.00492681,4.18027
2212,50259,0.00492681,4.18564
2214,50313,0.00496604,4.19102
2216,50366,0.00496604,4.19639
2218,50422,0.00493858,4.20195
2220,50492,0.00488268,4.20898
2222,50601,0.00485523,4.21992
2224,50656,0.00485523,4.22529
2226,50714,0.00486699,4.23115
2228,50768,0.00491603,4.23652
2230,50824,0.00491603,4.24209
2232,50881,0.00498762,4.24785
2234,50935,0.00498762,4.25322
2236,50995,0.00502096,4.25928
2238,51047,0.00502096,4.26445
2240,51100,0.00495525,4.26973
2242,51153,0.00486699,4.2751
2244,51205,0.00486699,4.28027
2246,51259,0.00473951,4.28555
2248,51317,0.00473951,4.2915
2250,51372,0.00468459,4.29697
2252,51426,0.00468459,4.30234
2254,51480,0.00476206,4.30771
2256,51536,0.00482777,4.31338
2258,51589,0.00482777,4.31865
2260,51735,0.00497683,4.3332
2262,51791,0.00497683,4.33887
2264,51843,0.00493858,4.34404
2266,51897,0.00493858,4.34941
2268,51953,0.00494937,4.35508
2270,52006,0.00496604,4.36035
2272,52061,0.00496604,4.36582
2274,52115,0.00488857,4.37129
2276,52170,0.00488857,4.37666
2278,52222,0.00485523,4.38193
2280,52277,0.00485523,4.3874
2282,52335,0.00485032,4.39326
2284,52391,0.00482777,4.39883
2286,52447,0.00482777,4.40439
2288,52501,0.00485523,4.40977
2290,52556,0.00485523,4.41533
2292,52608,0.00496016,4.42051
2294,52662,0.00496016,4.42598
2296,52717,0.00503175,4.43145
2298,52773,0.00510431,4.43701
2300,52865,0.00513668,4.44629
2302,52921,0.00513668,4.45186
2304,52975,0.0051151,4.45723
2306,53031,0.0051151,4.46289
2308,53089,0.00508176,4.46855
2310,53139,0.00508176,4.47363
2312,53193,0.00503175,4.4791
2314,53246,0.00499938,4.484375
2316,53299,0.00499938,4.48965
2318,53351,0.00498271,4.49492
2320,53403,0.00498271,4.5001
2322,53460,0.00504842,4.50566
2324,53515,0.00504842,4.51123
2326,53566,0.00508764,4.51641
2328,53619,0.00514256,4.52168
2330,53672,0.00514256,4.52695
2332,53729,0.00524749,4.53262
2334,53780,0.00524749,4.53779
2336,53837,0.00522003,4.54346
2338,53889,0.00522003,4.54863
2340,53985,0.00520336,4.5582
2342,54048,0.00519257,4.56455
2344,54104,0.00508176,4.57012
2346,54159,0.00508176,4.57568
2348,54211,0.00500429,4.58086
2350,54263,0.00500429,4.58604
2352,54316,0.00495525,4.59131
2354,54372,0.00495525,4.59697
2356,54430,0.00494937,4.60273
2358,54484,0.00507097,4.6082
2360,54539,0.00507097,4.61357
2362,54592,0.00526907,4.61895
2364,54649,0.00526907,4.62461
2366,54704,0.00541322,4.63018
2368,54759,0.00541322,4.63564
2370,54815,0.0054956,4.64121
2372,54869,0.00545735,4.64668
2374,54922,0.00545735,4.65195
2376,54978,0.00536321,4.65752
2378,55031,0.00536321,4.66289
2380,55141,0.00540734,4.67383
2382,55193,0.00540734,4.6791
2384,55299,0.00546226,4.68965
2386,55356,0.00551227,4.69531
2388,55410,0.00551227,4.70078
2390,55465,0.00556719,4.70625
2392,55521,0.00566722,4.71191
2394,55575,0.00566722,4.71729
2396,55631,0.00569467,4.72275
2398,55688,0.00569467,4.72852
2400,55745,0.00572704,4.73428
2402,55799,0.00572704,4.73965
2404,55855,0.00563878,4.74521
2406,55912,0.00557896,4.75088
2408,55966,0.00557896,4.75625
2410,56019,0.00557307,4.76172
2412,56075,0.00557307,4.76729
2414,56128,0.00562309,4.77256
2416,56183,0.00562309,4.77803
2418,56287,0.00559465,4.78838
2420,56350,0.00559465,4.79463
2422,56405,0.00563387,4.8002
2424,56458,0.00563387,4.80557
2426,56511,0.00563387,4.81084
2428,56567,0.00563387,4.81641
2430,56621,0.00565545,4.82178
2432,56675,0.00577117,4.82725
2434,56728,0.00577117,4.83262
2436,56786,0.00579372,4.83828
2438,56840,0.00579372,4.84375
2440,56897,0.00576038,4.84941
2442,56951,0.00576038,4.85479
2444,57004,0.00576038,4.86016
2446,57057,0.00575548,4.86543
2448,57112,0.00575548,4.8709
2450,57166,0.00574959,4.87637
2452,57219,0.00574959,4.88164
2454,57274,0.00578293,4.88711
2456,57330,0.00576626,4.89268
2458,57435,0.00578293,4.90322
2460,57494,0.00578293,4.90908
2462,57549,0.00583785,4.91455
2464,57604,0.00583785,4.92012
2466,57662,0.00586041,4.92588
2468,57717,0.00587119,4.93145
2470,57776,0.00587119,4.9373
2472,57835,0.00583785,4.94316
2474,57890,0.00583785,4.94863
2476,57946,0.00576626,4.9543
2478,58002,0.00574959,4.95996
2480,58060,0.00574959,4.965625
2482,58113,0.00574959,4.97109
2484,58170,0.00574959,4.97666
2486,58225,0.00578293,4.98213
2488,58282,0.00586041,4.98789
2490,58339,0.00586041,4.99336
2492,58397,0.00594867,4.99717
2494,58456,0.00594867,4.99951
2495,58486,0.00608106,5.0