File: tensile_tests/04.03.25_WT_idx0_slipped.csv
,Time,Force (Newtons),Distance (millimeters)
0,1,-0.000141508,0.0
2,98,-0.000113069,0.0
4,128,-3.23423e-06,0.0
6,162,-3.23423e-06,0.0
8,192,-3.23423e-06,0.0
10,222,-3.06929e-05,0.0
12,254,-3.06929e-05,0.0
14,283,-3.06929e-05,0.0
16,313,4.08957e-05,0.0
18,345,4.08957e-05,0.0
20,373,4.08957e-05,0.0
22,403,0.000140924,0.0
24,430,0.000140924,0.0
26,463,0.000140924,0.0
28,494,0.000223299,0.0
30,525,0.000223299,0.0
32,554,0.000223299,0.0
34,584,0.000300772,0.0
36,614,0.000300772,0.0
38,645,0.000300772,0.0
40,673,0.000300772,0.0
42,700,0.000294888,0.0
44,729,0.000294888,0.0
46,758,0.000294888,0.0
48,785,0.000267429,0.0
50,814,0.000267429,0.0
52,847,0.000267429,0.0
54,878,0.00013504,0.0
56,905,0.00013504,0.0
58,936,0.00013504,0.0
60,964,2.42244e-05,0.0
62,997,2.42244e-05,0.0
64,1028,2.42244e-05,0.0
66,1055,2.42244e-05,0.0
68,1082,-3.65768e-05,0.0
70,1109,-3.65768e-05,0.0
72,1134,-3.65768e-05,0.0
74,1161,-1.99055e-05,0.0
76,1188,-1.99055e-05,0.0
78,1216,-1.99055e-05,0.0
80,1247,-1.99055e-05,0.0
82,1276,7.42383e-05,0.0
84,1306,7.42383e-05,0.0
86,1334,7.42383e-05,0.0
88,1397,0.000156614,0.0
90,1428,0.000156614,0.0
92,1460,0.000229183,0.0
94,1490,0.000229183,0.0
96,1520,0.000229183,0.0
98,1549,0.000189957,0.0
100,1579,0.000189957,0.0
102,1610,0.000189957,0.0
104,1639,9.58129e-05,0.0
106,1668,9.58129e-05,0.0
108,1696,9.58129e-05,0.0
110,1728,6.3451e-05,0.0
112,1762,6.3451e-05,0.0
114,1792,6.3451e-05,0.0
116,1818,6.3451e-05,0.0
118,1848,6.83543e-05,0.0
120,1878,6.83543e-05,0.0
122,1908,6.83543e-05,0.0
124,1936,0.000140924,0.0
126,1966,0.000140924,0.0
128,1997,0.000140924,0.0
130,2029,0.000179169,0.0
132,2059,0.000179169,0.0
134,2086,0.000179169,0.0
136,2115,0.000185053,0.0
138,2146,0.000185053,0.0
140,2179,0.000185053,0.0
142,2211,0.000185053,0.0
144,2238,0.000185053,0.0
146,2264,0.000185053,0.0
148,2291,0.000185053,0.0
150,2318,0.000256642,0.0
152,2345,0.000256642,0.0
154,2372,0.000256642,0.0
156,2398,0.000393935,0.0
158,2424,0.000393935,0.0
160,2451,0.000393935,0.0
162,2478,0.000393935,0.0
164,2504,0.00050475,0.0
166,2529,0.00050475,0.0
168,2555,0.00050475,0.0
170,2581,0.000477292,0.0
172,2608,0.000477292,0.0
174,2635,0.000477292,0.0
176,2660,0.000477292,0.0
178,2687,0.00037236,0.0
180,2714,0.00037236,0.0
182,2741,0.00037236,0.0
184,2765,0.00037236,0.0
186,2792,0.000300772,0.0
188,2819,0.000300772,0.0
190,2846,0.000300772,0.0
192,2874,0.000317443,0.0
194,2901,0.000317443,0.0
196,2932,0.000317443,0.0
198,2961,0.000317443,0.0
200,2987,0.000383148,0.0
202,3015,0.000383148,0.0
204,3047,0.000383148,0.0
206,3076,0.000466504,0.0
208,3106,0.000466504,0.0
210,3135,0.000466504,0.0
212,3163,0.000582223,0.0
214,3196,0.000582223,0.0
216,3226,0.000582223,0.0
218,3256,0.000643024,0.0
220,3286,0.000643024,0.0
222,3315,0.000643024,0.0
224,3345,0.000643024,0.0
226,3378,0.000643024,0.0
228,3409,0.000643024,0.0
230,3439,0.000631256,0.0
232,3469,0.000631256,0.0
234,3497,0.000631256,0.0
236,3524,0.000631256,0.0
238,3552,0.000576339,0.0
240,3581,0.000576339,0.0
242,3608,0.000576339,0.0
244,3634,0.000538093,0.0
246,3661,0.000538093,0.0
248,3688,0.000538093,0.0
250,3714,0.000538093,0.0
252,3741,0.000538093,0.0
254,3768,0.000538093,0.0
256,3798,0.000538093,0.0
258,3829,0.000542996,0.0
260,3858,0.000542996,0.0
262,3886,0.000542996,0.0
264,3915,0.000493963,0.0
266,3941,0.000493963,0.0
268,3969,0.000493963,0.0
270,3998,0.000493963,0.0
272,4026,0.000498866,0.0
274,4053,0.000498866,0.0
276,4081,0.000498866,0.0
278,4107,0.000498866,0.0
280,4138,0.000498866,0.0
282,4167,0.000498866,0.0
284,4193,0.000498866,0.0
286,4221,0.000355689,0.0
288,4247,0.000355689,0.0
290,4273,0.000355689,0.0
292,4304,0.000195841,0.0
294,4331,0.000195841,0.0
296,4360,0.000195841,0.0
298,4387,0.000195841,0.0
300,4419,9.09096e-05,0.0
302,4447,9.09096e-05,0.0
304,4474,9.09096e-05,0.0
306,4503,0.000118368,0.0
308,4531,0.000118368,0.0
310,4557,0.000118368,0.0
312,4583,0.000212512,0.0
314,4610,0.000212512,0.0
316,4636,0.000212512,0.0
318,4663,0.000212512,0.0
320,4774,0.000344902,0.0
322,4800,0.000344902,0.0
324,4826,0.000344902,0.0
326,4855,0.000344902,0.0
328,4882,0.000389032,0.0
330,4907,0.000389032,0.0
332,4936,0.000389032,0.0
334,4964,0.000449833,0.0
336,4993,0.000449833,0.0
338,5021,0.000449833,0.0
340,5050,0.000449833,0.0
342,5079,0.000554764,0.0
344,5112,0.000554764,0.0
346,5142,0.000554764,0.0
348,5169,0.000670483,0.0
350,5198,0.000670483,0.0
352,5226,0.000670483,0.0
354,5253,0.000807776,0.0
356,5281,0.000807776,0.0
358,5310,0.000807776,0.0
360,5337,0.000807776,0.0
362,5363,0.000946049,0.0
364,5389,0.000946049,0.0
366,5416,0.000946049,0.0
368,5445,0.00110099,0.0
370,5472,0.00110099,0.0
372,5498,0.00110099,0.0
374,5529,0.00110099,0.0
376,5556,0.00119416,0.0
378,5583,0.00119416,0.0
380,5608,0.00119416,0.0
382,5636,0.00121083,0.0
384,5662,0.00121083,0.0
386,5689,0.00121083,0.0
388,5716,0.00121083,0.0
390,5745,0.00130497,0.0
392,5771,0.00130497,0.0
394,5799,0.00130497,0.0
396,5828,0.00150405,0.0
398,5857,0.00150405,0.0
400,5884,0.00150405,0.0
402,5913,0.00161977,0.0
404,5941,0.00161977,0.0
406,5970,0.00161977,0.0
408,5998,0.00161977,0.0
410,6027,0.00165801,0.0
412,6055,0.00165801,0.0
414,6085,0.00165801,0.0
416,6115,0.00161388,0.0
418,6141,0.00161388,0.0
420,6169,0.00161388,0.0
422,6197,0.00161388,0.0
424,6226,0.00145403,0.0
426,6253,0.00145403,0.0
428,6282,0.00145403,0.0
430,6311,0.00132655,0.0
432,6338,0.00132655,0.0
434,6363,0.00132655,0.0
436,6389,0.00136577,0.0
438,6416,0.00136577,0.0
440,6442,0.00136577,0.0
442,6468,0.00136577,0.0
444,6496,0.00148149,0.0
446,6525,0.00148149,0.0
448,6552,0.00148149,0.0
450,6577,0.00148149,0.0
452,6606,0.00146482,0.0
454,6632,0.00146482,0.0
456,6660,0.00146482,0.0
458,6688,0.00145403,0.0
460,6717,0.00145403,0.0
462,6747,0.00145403,0.0
464,6774,0.0013491,0.0
466,6803,0.0013491,0.0
468,6830,0.0013491,0.0
470,6857,0.0013491,0.0
472,6884,0.0012883,0.0
474,6914,0.0012883,0.0
476,6942,0.0012883,0.0
478,6971,0.00131086,0.0
480,6998,0.00131086,0.0
482,7028,0.00131086,0.0
484,7056,0.00137068,0.0
486,7083,0.00137068,0.0
488,7110,0.00137068,0.0
490,7137,0.00137068,0.0
492,7167,0.00144815,0.0
494,7194,0.00144815,0.0
496,7221,0.00144815,0.0
498,7245,0.00137068,0.0
500,7293,0.00137068,9.765625e-05
502,7344,0.0012883,0.0001953125
504,7384,0.0012883,0.000390625
506,7422,0.0012883,0.0005859375
508,7459,0.0012275,0.000878906
510,7500,0.0012275,0.00126953
512,7540,0.00119416,0.00175781
514,7578,0.00119416,0.00224609
516,7621,0.00119416,0.00283203
518,7722,0.00131576,0.0046875
520,7760,0.00131576,0.00546875
522,7801,0.00131576,0.00634766
524,7841,0.00142658,0.00732422
526,7881,0.00142658,0.00839844
528,7923,0.00154818,0.00957031
530,7964,0.00154818,0.0107422
532,8004,0.0017296,0.0120117
534,8044,0.0017296,0.0132813
536,8084,0.0017296,0.0146484
538,8124,0.00206107,0.0161133
540,8164,0.00206107,0.0176758
542,8201,0.00246902,0.0191406
544,8239,0.00246902,0.0207031
546,8278,0.00246902,0.0223633
548,8314,0.00290542,0.0240234
550,8353,0.00290542,0.0257813
552,8393,0.00345165,0.0277344
554,8430,0.00345165,0.0295898
556,8470,0.00345165,0.0316406
558,8510,0.00394296,0.0337891
560,8550,0.00394296,0.0359375
562,8590,0.00436759,0.0381836
564,8628,0.00436759,0.0404297
566,8669,0.00436759,0.0428711
568,8708,0.00474318,0.0452148
570,8746,0.00474318,0.04765625
572,8783,0.00512368,0.05
574,8821,0.00512368,0.0526367
576,8861,0.00552674,0.0552734
578,8901,0.00552674,0.0581055
580,8940,0.00552674,0.0608398
582,8977,0.00592979,0.0635742
584,9015,0.00592979,0.0665039
586,9055,0.00640443,0.06953125
588,9094,0.00640443,0.0725586
590,9138,0.00640443,0.0760742
592,9179,0.0068624,0.0793945
594,9217,0.0068624,0.0826172
596,9258,0.00729291,0.0861328
598,9298,0.00729291,0.0895508
600,9340,0.007745,0.0932617
602,9378,0.007745,0.0966797
604,9418,0.007745,0.100488
606,9458,0.00822553,0.104199
608,9497,0.00822553,0.10791
610,9540,0.00872763,0.112109
612,9578,0.00872763,0.115918
614,9620,0.00872763,0.120117
616,9667,0.00916402,0.124805
618,9712,0.00916402,0.129297
620,9759,0.00953864,0.133984
622,9802,0.00953864,0.138281
624,9846,0.00988677,0.142676
626,9893,0.00988677,0.147363
628,10015,0.0105438,0.159668
630,10071,0.0105438,0.165234
632,10111,0.0109626,0.169238
634,10156,0.0109626,0.17373
636,10197,0.0113715,0.177832
638,10241,0.0113715,0.182227
640,10285,0.0113715,0.186523
642,10332,0.0118187,0.191309
644,10376,0.0118187,0.195703
646,10420,0.0122649,0.200098
648,10465,0.0122649,0.20459
650,10511,0.0126738,0.20918
652,10552,0.0126738,0.213281
654,10595,0.0130102,0.217578
656,10636,0.0130102,0.22168
658,10716,0.013325,0.2296875
660,10755,0.013325,0.233594
662,10795,0.0136672,0.237598
664,10835,0.0136672,0.241602
666,10877,0.0139595,0.245801
668,10919,0.0139595,0.25
670,10963,0.0142576,0.254395
672,11010,0.0142576,0.259082
674,11057,0.0145773,0.263867
676,11102,0.0145773,0.268359
678,11144,0.0145773,0.272461
680,11185,0.0148205,0.27666
682,11226,0.0148205,0.280664
684,11267,0.0151627,0.284766
686,11311,0.0151627,0.28916
688,11355,0.0156756,0.293555
690,11394,0.0156756,0.297559
692,11436,0.0160846,0.301758
694,11477,0.0160846,0.305859
696,11519,0.0160846,0.309961
698,11560,0.016471,0.314062
700,11608,0.016471,0.318945
702,11649,0.0168289,0.323047
704,11693,0.0168289,0.327441
706,11738,0.0170721,0.331836
708,11780,0.0170721,0.336035
710,11820,0.0175085,0.340039
712,11866,0.0175085,0.344727
714,11912,0.0179106,0.349219
716,11953,0.0179106,0.353418
718,11996,0.0179106,0.357715
720,12038,0.0183195,0.361914
722,12079,0.0183195,0.366016
724,12126,0.0187275,0.370703
726,12169,0.0187275,0.375
728,12211,0.0190972,0.379199
730,12257,0.0190972,0.383789
732,12299,0.0195718,0.387988
734,12340,0.0195718,0.39209
736,12379,0.0195718,0.395996
738,12419,0.0199857,0.4
740,12458,0.0199857,0.403906
742,12495,0.0204829,0.407617
744,12538,0.0204829,0.411914
746,12580,0.0210516,0.416113
748,12626,0.0210516,0.420703
750,12671,0.0217244,0.425195
752,12714,0.0217244,0.429492
754,12758,0.0217244,0.433887
756,12796,0.0223922,0.437695
758,12858,0.0229992,0.441699
760,12925,0.0229992,0.450586
762,12965,0.0235347,0.45459
764,13004,0.0235347,0.458496
766,13049,0.0240368,0.462988
768,13089,0.0240368,0.466992
770,13129,0.0240368,0.470996
772,13170,0.0246105,0.475098
774,13212,0.0246105,0.479297
776,13251,0.0253117,0.483203
778,13293,0.0253117,0.487402
780,13333,0.0261452,0.491406
782,13377,0.0261452,0.495703
784,13417,0.0261452,0.499805
786,13462,0.0270278,0.504297
788,13502,0.0270278,0.508301
790,13548,0.027983,0.512891
792,13591,0.027983,0.5171875
794,13632,0.0288273,0.521289
796,13679,0.0288273,0.525977
798,13729,0.0295442,0.530957
800,13775,0.0295442,0.535645
802,13818,0.0303729,0.539941
804,13865,0.0303729,0.544629
806,13908,0.0312819,0.548926
808,13949,0.0312819,0.553027
810,13989,0.0312819,0.557031
812,14028,0.0323146,0.5609375
814,14068,0.0323146,0.564941
816,14109,0.0333845,0.569043
818,14152,0.0333845,0.57334
820,14197,0.0343504,0.577832
822,14240,0.0343504,0.582129
824,14279,0.0343504,0.586035
826,14320,0.0354047,0.590137
828,14364,0.0354047,0.594434
830,14403,0.0365687,0.59834
832,14445,0.0365687,0.602637
834,14489,0.037872,0.607031
836,14531,0.037872,0.61123
838,14576,0.0392842,0.615723
840,14620,0.0392842,0.62002
842,14663,0.0392842,0.624414
844,14706,0.0405375,0.628711
846,14748,0.0405375,0.63291
848,14790,0.0418006,0.637109
850,14834,0.0418006,0.641504
852,14877,0.0431362,0.645801
854,14918,0.0431362,0.649902
856,14961,0.044417,0.654199
858,15005,0.044417,0.658594
860,15046,0.044417,0.662598
862,15091,0.0459625,0.667187
864,15132,0.0459625,0.671289
866,15175,0.0474629,0.675586
868,15215,0.0474629,0.67959
870,15258,0.0490634,0.683887
872,15301,0.0490634,0.688184
874,15344,0.0509845,0.69248
876,15385,0.0509845,0.696582
878,15430,0.0529046,0.701074
880,15476,0.0529046,0.705664
882,15559,0.0551013,0.713965
884,15609,0.0551013,0.718945
886,15652,0.057248,0.723242
888,15703,0.057248,0.72832
890,15745,0.0592848,0.732617
892,15787,0.0592848,0.736816
894,15828,0.061608,0.740918
896,15872,0.061608,0.745312
898,15915,0.0639861,0.749512
900,15959,0.0639861,0.754004
902,16007,0.0665751,0.758789
904,16047,0.0665751,0.762793
906,16090,0.0665751,0.766992
908,16135,0.0692847,0.771582
910,16180,0.0692847,0.776074
912,16224,0.0718677,0.780566
914,16270,0.0718677,0.785059
916,16311,0.0748146,0.789258
918,16356,0.0748146,0.793652
920,16400,0.0779714,0.798145
922,16443,0.0779714,0.802344
924,16489,0.0813988,0.806934
926,16538,0.0813988,0.811816
928,16595,0.08509,0.817578
930,16643,0.08509,0.822363
932,16690,0.0885567,0.827051
934,16732,0.0885567,0.83125
936,16775,0.092193,0.835645
938,16867,0.095946,0.844727
940,17019,0.0998481,0.859961
942,17086,0.104202,0.866699
944,17128,0.104202,0.870898
946,17173,0.108418,0.875391
948,17216,0.108418,0.8796875
950,17263,0.113021,0.884375
952,17315,0.113021,0.889551
954,17362,0.118121,0.894336
956,17408,0.118121,0.898828
958,17452,0.123353,0.903223
960,17499,0.123353,0.90791
962,17550,0.129269,0.913086
964,17598,0.129269,0.917871
966,17693,0.135069,0.927441
968,17743,0.140897,0.932324
970,17847,0.147227,0.942773
972,17924,0.153656,0.950488
974,17967,0.153656,0.954785
976,18013,0.160792,0.959375
978,18057,0.160792,0.96377
980,18103,0.16806,0.968359
982,18143,0.16806,0.972363
984,18184,0.16806,0.976465
986,18227,0.175262,0.980762
988,18272,0.175262,0.985352
990,18314,0.183304,0.989551
992,18356,0.183304,0.99375
994,18401,0.191443,0.998145
996,18443,0.191443,1.00234
998,18487,0.200185,1.00674
1000,18529,0.200185,1.01094
1002,18575,0.209358,1.01553
1004,18619,0.209358,1.02002
1006,18668,0.217928,1.0248
1008,18719,0.217928,1.02998
1010,18765,0.226951,1.03457
1012,18810,0.226951,1.03906
1014,18853,0.235997,1.04346
1016,18899,0.235997,1.04795
1018,19071,0.255401,1.06523
1020,19116,0.255401,1.06963
1022,19159,0.265153,1.07393
1024,19203,0.265153,1.07842
1026,19247,0.275621,1.08271
1028,19293,0.275621,1.0873
1030,19335,0.28677,1.0916
1032,19378,0.28677,1.0959
1034,19421,0.28677,1.1001
1036,19463,0.298023,1.10439
1038,19506,0.298023,1.10869
1040,19555,0.310539,1.11357
1042,19602,0.310539,1.11826
1044,19646,0.322708,1.12266
1046,19696,0.322708,1.12764
1048,19753,0.334921,1.1333
1050,19799,0.334921,1.13789
1052,19841,0.347897,1.14219
1054,19886,0.347897,1.14658
1056,19929,0.360452,1.15098
1058,19974,0.360452,1.15547
1060,20020,0.374161,1.16006
1062,20063,0.374161,1.16436
1064,20107,0.387974,1.16875
1066,20148,0.387974,1.17295
1068,20193,0.40149,1.17744
1070,20239,0.40149,1.18193
1072,20281,0.416468,1.18613
1074,20367,0.416468,1.19473
1076,20420,0.431252,1.2001
1078,20466,0.431252,1.20459
1080,20510,0.447053,1.20908
1082,20553,0.447053,1.21338
1084,20596,0.463697,1.21768
1086,20640,0.463697,1.22207
1088,20684,0.479481,1.22646
1090,20726,0.479481,1.23066
1092,20768,0.496506,1.23477
1094,20812,0.496506,1.23916
1096,20855,0.513422,1.24355
1098,20897,0.513422,1.24775
1100,20941,0.513422,1.25215
1102,20987,0.53074,1.25674
1104,21031,0.53074,1.26113
1106,21077,0.549405,1.26572
1108,21122,0.549405,1.27031
1110,21166,0.567104,1.27461
1112,21213,0.567104,1.27939
1114,21254,0.585784,1.2835
1116,21298,0.585784,1.28789
1118,21340,0.605001,1.29209
1120,21384,0.605001,1.29648
1122,21428,0.623947,1.30088
1124,21474,0.623947,1.30537
1126,21520,0.644858,1.31006
1128,21564,0.644858,1.31445
1130,21610,0.644858,1.31904
1132,21653,0.665062,1.32334
1134,21701,0.665062,1.328125
1136,21743,0.685537,1.33242
1138,21789,0.685537,1.33691
1140,21832,0.707364,1.34131
1142,21877,0.707364,1.3457
1144,21920,0.728496,1.3501
1146,21962,0.728496,1.3543
1148,22009,0.751288,1.35898
1150,22056,0.751288,1.36367
1152,22100,0.774037,1.36807
1154,22144,0.774037,1.37246
1156,22189,0.796128,1.37695
1158,22233,0.796128,1.38135
1160,22277,0.796128,1.38574
1162,22323,0.819804,1.39033
1164,22365,0.819804,1.39453
1166,22410,0.842912,1.39902
1168,22453,0.842912,1.40342
1170,22498,0.867282,1.40791
1172,22541,0.867282,1.41221
1174,22583,0.892471,1.41641
1176,22629,0.892471,1.4209
1178,22675,0.916356,1.42559
1180,22787,0.941902,1.43682
1182,22830,0.941902,1.44102
1184,22877,0.966731,1.4458
1186,22925,0.966731,1.45049
1188,22969,0.991975,1.45498
1190,23011,0.991975,1.45918
1192,23056,1.01886,1.46367
1194,23099,1.01886,1.46797
1196,23141,1.04377,1.47217
1198,23189,1.04377,1.47695
1200,23235,1.07029,1.48154
1202,23278,1.07029,1.48584
1204,23323,1.07029,1.49043
1206,23367,1.09748,1.49473
1208,23413,1.09748,1.49941
1210,23457,1.12421,1.50381
1212,23504,1.12421,1.5085
1214,23551,1.15357,1.51318
1216,23597,1.15357,1.51777
1218,23641,1.18132,1.52217
1220,23686,1.18132,1.52666
1222,23731,1.20894,1.53115
1224,23776,1.20894,1.53564
1226,23820,1.23762,1.54014
1228,23867,1.23762,1.54473
1230,23910,1.26459,1.54902
1232,24002,1.29375,1.5582
1234,24055,1.29375,1.56357
1236,24098,1.32268,1.56787
1238,24143,1.32268,1.57236
1240,24185,1.35077,1.57656
1242,24230,1.35077,1.58105
1244,24277,1.35077,1.58574
1246,24320,1.38123,1.59004
1248,24363,1.38123,1.59434
1250,24409,1.41047,1.59893
1252,24452,1.41047,1.60322
1254,24495,1.44112,1.60752
1256,24538,1.44112,1.61182
1258,24584,1.47248,1.61641
1260,24625,1.47248,1.62061
1262,24669,1.50154,1.6249
1264,24714,1.50154,1.62939
1266,24765,1.53239,1.63457
1268,24821,1.53239,1.64014
1270,24864,1.56212,1.64443
1272,24909,1.56212,1.64893
1274,24954,1.59193,1.65342
1276,25000,1.59193,1.65811
1278,25053,1.62375,1.66328
1280,25101,1.62375,1.66816
1282,25145,1.65313,1.67256
1284,25188,1.65313,1.67686
1286,25234,1.68369,1.68145
1288,25279,1.68369,1.68594
1290,25324,1.68369,1.69043
1292,25371,1.71455,1.69512
1294,25416,1.71455,1.69961
1296,25464,1.74411,1.70439
1298,25510,1.74411,1.70908
1300,25557,1.77614,1.71377
1302,25605,1.77614,1.71846
1304,25651,1.80563,1.72314
1306,25699,1.80563,1.72793
1308,25746,1.83419,1.73271
1310,25837,1.86015,1.7418
1312,25893,1.86015,1.74727
1314,25952,1.86574,1.75332
1316,25999,1.85613,1.75791
1318,26043,1.85613,1.7624
1320,26090,1.858,1.76709
1322,26138,1.858,1.771875
1324,26185,1.87138,1.77656
1326,26231,1.87138,1.78115
1328,26277,1.90755,1.78574
1330,26321,1.90755,1.79014
1332,26364,1.90755,1.79443
1334,26410,1.96023,1.79902
1336,26455,1.96023,1.80361
1338,26501,2.00271,1.80811
1340,26546,2.00271,1.8127
1342,26596,2.03661,1.81758
1344,26645,2.03661,1.82256
1346,26691,2.0656,1.82715
1348,26735,2.0656,1.83154
1350,26782,2.09645,1.83623
1352,26827,2.09645,1.84082
1354,26872,2.12588,1.84521
1356,26918,2.12588,1.8498
1358,26963,2.1557,1.8543
1360,27009,2.1557,1.85898
1362,27054,2.18738,1.86348
1364,27103,2.18738,1.86826
1366,27148,2.21521,1.87285
1368,27193,2.21521,1.87734
1370,27241,2.24433,1.88213
1372,27286,2.24433,1.88662
1374,27334,2.27378,1.89141
1376,27378,2.27378,1.8959
1378,27424,2.30222,1.90049
1380,27471,2.30222,1.90518
1382,27515,2.3342,1.90957
1384,27561,2.3342,1.91416
1386,27607,2.3342,1.91875
1388,27651,2.36324,1.92314
1390,27699,2.36324,1.92803
1392,27747,2.39114,1.93271
1394,27794,2.39114,1.9374
1396,27840,2.42031,1.94209
1398,27886,2.42031,1.94668
1400,27932,2.44726,1.95117
1402,27996,2.47729,1.95762
1404,28044,2.47729,1.9624
1406,28095,2.50638,1.96758
1408,28141,2.50638,1.97207
1410,28191,2.53343,1.97715
1412,28237,2.53343,1.98174
1414,28284,2.56294,1.98643
1416,28334,2.56294,1.9915
1418,28380,2.58992,1.99609
1420,28425,2.58992,2.00059
1422,28527,2.61909,2.01074
1424,28575,2.64893,2.015625
1426,28623,2.64893,2.02031
1428,28669,2.67474,2.025
1430,28716,2.67474,2.02969
1432,28759,2.70354,2.03398
1434,28805,2.70354,2.03857
1436,28851,2.73086,2.04316
1438,28897,2.73086,2.04775
1440,28944,2.75831,2.05244
1442,28991,2.75831,2.05713
1444,29041,2.78855,2.06211
1446,29085,2.78855,2.0666
1448,29132,2.78855,2.07129
1450,29178,2.81465,2.07588
1452,29225,2.81465,2.08057
1454,29270,2.84163,2.08506
1456,29320,2.84163,2.09004
1458,29367,2.86897,2.09473
1460,29414,2.86897,2.09941
1462,29458,2.89473,2.10381
1464,29504,2.89473,2.1084
1466,29550,2.9244,2.11309
1468,29598,2.9244,2.11787
1470,29642,2.95095,2.12227
1472,29691,2.95095,2.12705
1474,29739,2.97624,2.13193
1476,29786,2.97624,2.13662
1478,29835,3.00273,2.1415
1480,29881,3.00273,2.14609
1482,29929,3.02579,2.15088
1484,29975,3.02579,2.15557
1486,30023,3.05217,2.16035
1488,30072,3.05217,2.16523
1490,30122,3.07796,2.17021
1492,30168,3.07796,2.1749
1494,30217,3.10135,2.17979
1496,30266,3.10135,2.18467
1498,30312,3.12826,2.18916
1500,30358,3.12826,2.19385
1502,30404,3.15263,2.19844
1504,30453,3.15263,2.20332
1506,30502,3.17751,2.2082
1508,30553,3.17751,2.21328
1510,30602,3.20376,2.21826
1512,30656,3.22542,2.22363
1514,30712,3.22542,2.2293
1516,30762,3.24943,2.23418
1518,30822,3.24943,2.24023
1520,30868,3.27328,2.24482
1522,30915,3.27328,2.24951
1524,30961,3.2965,2.2541
1526,31007,3.2965,2.25869
1528,31070,3.32281,2.26504
1530,31180,3.34501,2.27607
1532,31228,3.36834,2.28086
1534,31277,3.36834,2.28564
1536,31325,3.39271,2.29043
1538,31449,3.41488,2.30283
1540,31499,3.41488,2.30791
1542,31545,3.44202,2.3126
1544,31592,3.44202,2.31719
1546,31640,3.46563,2.32207
1548,31690,3.46563,2.32705
1550,31737,3.48767,2.33174
1552,31792,3.48767,2.3373
1554,31842,3.51257,2.34229
1556,31891,3.51257,2.34717
1558,31942,3.53403,2.35225
1560,31990,3.55899,2.35703
1562,32039,3.55899,2.36191
1564,32084,3.58397,2.36641
1566,32137,3.58397,2.37178
1568,32185,3.60509,2.37656
1570,32233,3.60509,2.38135
1572,32279,3.62234,2.38594
1574,32329,3.62234,2.39092
1576,32378,3.62934,2.3958
1578,32430,3.62934,2.40107
1580,32479,3.63669,2.40586
1582,32527,3.63669,2.41064
1584,32572,3.64779,2.41523
1586,32620,3.64779,2.42002
1588,32666,3.66241,2.42471
1590,32714,3.66241,2.42949
1592,32762,3.68778,2.43418
1594,32809,3.68778,2.43896
1596,32863,3.71429,2.44434
1598,32912,3.71429,2.44912
1600,32962,3.73806,2.4542
1602,33010,3.73806,2.45898
1604,33059,3.76458,2.46396
1606,33105,3.76458,2.46855
1608,33152,3.78765,2.47324
1610,33198,3.78765,2.47783
1612,33246,3.80964,2.48262
1614,33294,3.80964,2.4874
1616,33342,3.83381,2.49219
1618,33387,3.83381,2.49668
1620,33436,3.85447,2.50166
1622,33484,3.85447,2.50645
1624,33532,3.87778,2.51123
1626,33581,3.87778,2.51611
1628,33628,3.89921,2.5208
1630,33676,3.89921,2.52559
1632,33724,3.91737,2.53037
1634,33770,3.91737,2.53506
1636,33818,3.9381,2.53984
1638,33865,3.9381,2.54453
1640,33911,3.95505,2.54912
1642,33957,3.95505,2.55371
1644,34007,3.97427,2.55869
1646,34059,3.97427,2.56387
1648,34109,3.99473,2.56895
1650,34155,3.99473,2.57344
1652,34201,4.01121,2.578125
1654,34245,4.01121,2.58252
1656,34293,4.03257,2.5873
1658,34337,4.03257,2.5917
1660,34385,4.05197,2.59648
1662,34432,4.05197,2.60127
1664,34481,4.07105,2.60615
1666,34528,4.07105,2.61084
1668,34579,4.09272,2.61592
1670,34628,4.09272,2.6208
1672,34682,4.1067,2.62627
1674,34733,4.1067,2.63125
1676,34781,4.1227,2.63613
1678,34829,4.1227,2.64092
1680,34934,4.13819,2.65049
1682,34984,4.15052,2.65635
1684,35032,4.15052,2.66123
1686,35082,4.16764,2.66621
1688,35129,4.17812,2.6709
1690,35177,4.17812,2.67568
1692,35223,4.17812,2.68037
1694,35274,4.18735,2.68545
1696,35323,4.20012,2.69023
1698,35369,4.20012,2.69492
1700,35419,4.20893,2.6999
1702,35466,4.20893,2.70459
1704,35513,4.22371,2.70928
1706,35559,4.22371,2.71396
1708,35606,4.23617,2.71865
1710,35655,4.23617,2.72354
1712,35706,4.24341,2.72861
1714,35756,4.24341,2.73369
1716,35807,4.25506,2.73877
1718,35856,4.25506,2.74365
1720,35908,4.2622,2.74883
1722,35956,4.2622,2.75361
1724,36002,4.27287,2.7582
1726,36051,4.27287,2.76318
1728,36099,4.28645,2.76797
1730,36149,4.28645,2.77285
1732,36197,4.29372,2.77773
1734,36249,4.29372,2.78291
1736,36301,4.29515,2.78809
1738,36348,4.29515,2.79287
1740,36396,4.23931,2.79766
1742,36447,4.23931,2.80264
1744,36495,4.17668,2.80752
1746,36542,4.17668,2.81221
1748,36590,4.146,2.81699
1750,36635,4.146,2.82158
1752,36686,4.13301,2.82666
1754,36736,4.13301,2.83164
1756,36787,4.18442,2.83672
1758,36836,4.18442,2.8416
1760,36887,4.24718,2.84668
1762,36936,4.24718,2.85166
1764,36983,4.28321,2.85635
1766,37032,4.31353,2.86123
1768,37083,4.31353,2.86631
1770,37134,4.33317,2.87139
1772,37182,4.33317,2.87627
1774,37229,4.34889,2.88096
1776,37279,4.34889,2.88594
1778,37324,4.36571,2.89043
1780,37372,4.36571,2.89521
1782,37423,4.37592,2.90029
1784,37475,4.37592,2.90547
1786,37524,4.39142,2.91045
1788,37576,4.39142,2.91553
1790,37624,4.40379,2.92041
1792,37675,4.40379,2.92549
1794,37724,4.41063,2.93047
1796,37773,4.41063,2.93535
1798,37824,4.4227,2.94033
1800,37873,4.4227,2.94531
1802,37920,4.42958,2.95
1804,37972,4.42958,2.95527
1806,38023,4.43874,2.96025
1808,38074,4.43874,2.96543
1810,38123,4.44947,2.97031
1812,38173,4.44947,2.97529
1814,38223,4.45247,2.98037
1816,38273,4.46041,2.98535
1818,38323,4.46041,2.99023
1820,38373,4.46821,2.99531
1822,38423,4.46821,3.00029
1824,38472,4.47692,3.00527
1826,38520,4.47692,3.01006
1828,38570,4.49125,3.01504
1830,38671,4.49668,3.0251
1832,38736,4.49668,3.03164
1834,38786,4.50081,3.03662
1836,38837,4.50081,3.0417
1838,38886,4.50311,3.04658
1840,38935,4.50311,3.05146
1842,38982,4.50064,3.05625
1844,39035,4.5039,3.06152
1846,39085,4.5039,3.0665
1848,39136,4.50296,3.07158
1850,39185,4.50296,3.07656
1852,39239,4.50258,3.08193
1854,39289,4.50258,3.08691
1856,39339,4.50748,3.09199
1858,39388,4.50748,3.096875
1860,39436,4.50758,3.10166
1862,39484,4.50758,3.10645
1864,39533,4.5113,3.11133
1866,39583,4.5113,3.11631
1868,39635,4.50975,3.12158
1870,39688,4.50975,3.12686
1872,39736,4.49853,3.13164
1874,39786,4.49853,3.13662
1876,39837,4.48944,3.1417
1878,39889,4.47299,3.14697
1880,39936,4.47299,3.15166
1882,39988,4.45497,3.15684
1884,40038,4.45497,3.16182
1886,40084,4.43397,3.1665
1888,40136,4.43397,3.17168
1890,40185,4.39788,3.17656
1892,40234,4.39788,3.18135
1894,40283,4.35839,3.18633
1896,40336,4.35839,3.1917
1898,40391,4.31058,3.19707
1900,40440,4.31058,3.20195
1902,40488,4.25517,3.20684
1904,40537,4.25517,3.21172
1906,40586,4.20024,3.2167
1908,40636,4.20024,3.22158
1910,40690,4.13226,3.22705
1912,40740,4.13226,3.23203
1914,40791,4.05925,3.23711
1916,40841,3.98202,3.24209
1918,40890,3.98202,3.24707
1920,40937,3.89693,3.25176
1922,40987,3.89693,3.25674
1924,41037,3.81252,3.26172
1926,41086,3.81252,3.2666
1928,41136,3.71797,3.27158
1930,41185,3.71797,3.27656
1932,41236,3.61417,3.28164
1934,41288,3.61417,3.28691
1936,41339,3.49998,3.29189
1938,41389,3.49998,3.29697
1940,41440,3.37011,3.30205
1942,41487,3.37011,3.30674
1944,41535,3.23777,3.31152
1946,41584,3.23777,3.31641
1948,41637,3.1031,3.32178
1950,41690,3.1031,3.32705
1952,41741,2.97416,3.33213
1954,41793,2.86415,3.3373
1956,41844,2.86415,3.34238
1958,41893,2.76308,3.34736
1960,41945,2.76308,3.35254
1962,41994,2.67364,3.35742
1964,42046,2.67364,3.3626
1966,42095,2.59436,3.36758
1968,42146,2.59436,3.37266
1970,42197,2.51845,3.37773
1972,42249,2.51845,3.38301
1974,42320,2.45423,3.38994
1976,42378,2.39689,3.3958
1978,42440,2.39689,3.40205
1980,42493,2.34202,3.40732
1982,42548,2.34202,3.41279
1984,42599,2.28575,3.41797
1986,42656,2.21995,3.42354
1988,42710,2.21995,3.429
1990,42762,2.15176,3.43418
1992,42814,2.15176,3.43945
1994,42866,2.08332,3.44463
1996,42971,2.01825,3.45508
1998,43022,2.01825,3.46016
2000,43076,1.96193,3.46553
2002,43125,1.90678,3.47051
2004,43174,1.90678,3.47539
2006,43224,1.85552,3.48037
2008,43276,1.85552,3.48555
2010,43326,1.81026,3.49053
2012,43376,1.81026,3.49561
2014,43427,1.76768,3.50068
2016,43476,1.76768,3.50566
2018,43524,1.7315,3.51045
2020,43577,1.7315,3.515625
2022,43629,1.69342,3.521
2024,43682,1.69342,3.52617
2026,43735,1.65084,3.53154
2028,43788,1.65084,3.53682
2030,43841,1.60797,3.54209
2032,43889,1.5604,3.54697
2034,43942,1.5604,3.55225
2036,43992,1.51452,3.55723
2038,44042,1.51452,3.5623
2040,44091,1.46909,3.56709
2042,44149,1.46909,3.57285
2044,44216,1.42174,3.57969
2046,44270,1.38253,3.58506
2048,44322,1.38253,3.59014
2050,44374,1.34806,3.59541
2052,44431,1.34806,3.60117
2054,44484,1.31964,3.60645
2056,44535,1.31964,3.61152
2058,44589,1.29928,3.61689
2060,44640,1.29928,3.62207
2062,44693,1.27771,3.62734
2064,44741,1.256,3.63213
2066,44792,1.256,3.6373
2068,44843,1.22982,3.64229
2070,44892,1.22982,3.64727
2072,44942,1.19921,3.65225
2074,44999,1.19921,3.65791
2076,45055,1.17128,3.66348
2078,45115,1.17128,3.66943
2080,45168,1.14541,3.6748
2082,45224,1.12734,3.68037
2084,45278,1.12734,3.68584
2086,45333,1.11402,3.69131
2088,45391,1.11402,3.69717
2090,45445,1.09763,3.70244
2092,45494,1.09763,3.70742
2094,45545,1.08208,3.7126
2096,45596,1.08208,3.71768
2098,45645,1.06531,3.72256
2100,45698,1.04929,3.72783
2102,45749,1.04929,3.73291
2104,45803,1.03903,3.73828
2106,45854,1.03903,3.74336
2108,45909,1.02989,3.74893
2110,45963,1.02989,3.7543
2112,46013,1.02232,3.75928
2114,46066,1.02232,3.76465
2116,46118,1.01349,3.76982
2118,46170,1.00086,3.775
2120,46222,1.00086,3.78018
2122,46273,0.987289,3.78535
2124,46329,0.987289,3.79082
2126,46383,0.968668,3.79639
2128,46438,0.968668,3.80176
2130,46491,0.947703,3.80713
2132,46547,0.947703,3.8127
2134,46600,0.926571,3.81797
2136,46649,0.902769,3.82285
2138,46700,0.902769,3.82793
2140,46752,0.882768,3.8332
2142,46804,0.882768,3.83848
2144,46854,0.865605,3.84336
2146,46910,0.865605,3.84893
2148,46964,0.849374,3.85449
2150,47016,0.849374,3.85957
2152,47070,0.835924,3.86494
2154,47122,0.820317,3.87012
2156,47172,0.820317,3.8752
2158,47292,0.804418,3.88721
2160,47349,0.789953,3.89287
2162,47401,0.789953,3.89814
2164,47452,0.775416,3.903125
2166,47500,0.775416,3.90801
2168,47551,0.763745,3.91318
2170,47604,0.750129,3.91836
2172,47656,0.750129,3.92363
2174,47712,0.734423,3.9291
2176,47764,0.734423,3.934375
2178,47820,0.720063,3.93994
2180,47869,0.720063,3.94482
2182,47921,0.70439,3.9501
2184,47972,0.70439,3.95527
2186,48022,0.691768,3.96025
2188,48075,0.680515,3.96553
2190,48126,0.680515,3.97061
2192,48177,0.66632,3.97568
2194,48230,0.66632,3.98096
2196,48282,0.651315,3.98623
2198,48339,0.651315,3.99189
2200,48392,0.633589,3.99717
2202,48444,0.633589,4.00234
2204,48500,0.613787,4.00801
2206,48550,0.5942,4.01299
2208,48602,0.5942,4.01816
2210,48654,0.573539,4.02334
2212,48710,0.573539,4.029
2214,48765,0.553384,4.03447
2216,48815,0.553384,4.03955
2218,48868,0.534532,4.04473
2220,48918,0.534532,4.0498
2222,48973,0.517241,4.05527
2224,49025,0.502704,4.06055
2226,49082,0.502704,4.06611
2228,49138,0.489095,4.07178
2230,49191,0.489095,4.07715
2232,49248,0.476219,4.08281
2234,49303,0.476219,4.08828
2236,49357,0.463571,4.09365
2238,49411,0.450049,4.09912
2240,49464,0.450049,4.10439
2242,49520,0.436126,4.10996
2244,49573,0.436126,4.11523
2246,49626,0.421456,4.12051
2248,49680,0.421456,4.12598
2250,49737,0.407907,4.13174
2252,49791,0.396374,4.13711
2254,49846,0.396374,4.14258
2256,49897,0.385364,4.14766
2258,49953,0.385364,4.15322
2260,50002,0.374381,4.1582
2262,50061,0.374381,4.16416
2264,50113,0.359182,4.16924
2266,50166,0.338536,4.17461
2268,50219,0.338536,4.17988
2270,50274,0.318415,4.18535
2272,50326,0.318415,4.190625
2274,50382,0.298729,4.19619
2276,50438,0.298729,4.20176
2278,50489,0.278585,4.20693
2280,50538,0.278585,4.21182
2282,50591,0.258172,4.21709
2284,50643,0.236102,4.22236
2286,50696,0.236102,4.22754
2288,50746,0.215313,4.23252
2290,50799,0.215313,4.23789
2292,50853,0.19997,4.24326
2294,50909,0.19997,4.24883
2296,50966,0.191063,4.25459
2298,51016,0.191063,4.25957
2300,51067,0.18572,4.26475
2302,51118,0.181096,4.26982
2304,51169,0.181096,4.2749
2306,51224,0.176923,4.28037
2308,51277,0.176923,4.28574
2310,51333,0.172956,4.29131
2312,51386,0.172956,4.29658
2314,51440,0.168921,4.30195
2316,51490,0.168921,4.30693
2318,51541,0.165477,4.31201
2320,51595,0.162051,4.31748
2322,51647,0.162051,4.32266
2324,51698,0.158966,4.32783
2326,51752,0.158966,4.3332
2328,51805,0.156355,4.33857
2330,51859,0.156355,4.34385
2332,51916,0.153778,4.34951
2334,51970,0.153778,4.35498
2336,52070,0.149313,4.36494
2338,52130,0.149313,4.371
2340,52182,0.146846,4.37627
2342,52235,0.146846,4.38154
2344,52292,0.14285,4.38711
2346,52344,0.14285,4.39238
2348,52399,0.135394,4.39785
2350,52454,0.125224,4.40342
2352,52511,0.125224,4.40898
2354,52563,0.113148,4.41426
2356,52617,0.113148,4.41963
2358,52670,0.101426,4.425
2360,52726,0.101426,4.43057
2362,52779,0.0931148,4.43584
2364,52833,0.087171,4.44131
2366,52886,0.087171,4.44668
2368,52938,0.0828826,4.45186
2370,52991,0.0828826,4.45713
2372,53042,0.0789864,4.46221
2374,53167,0.0741301,4.47461
2376,53222,0.0693288,4.48018
2378,53275,0.0693288,4.48545
2380,53332,0.0645991,4.49121
2382,53387,0.0645991,4.49668
2384,53444,0.0602508,4.50234
2386,53501,0.0558074,4.50801
2388,53558,0.0558074,4.51367
2390,53611,0.0501892,4.51904
2392,53666,0.0501892,4.52451
2394,53721,0.0438815,4.53008
2396,53774,0.0438815,4.53535
2398,53827,0.0374356,4.54072
2400,53881,0.0317125,4.54609
2402,53938,0.0317125,4.55176
2404,53991,0.0271553,4.55703
2406,54043,0.0271553,4.5623
2408,54096,0.0237661,4.56758
2410,54154,0.0237661,4.57334
2412,54211,0.0211007,4.5791
2414,54266,0.0183303,4.58457
2416,54323,0.0183303,4.59023
2418,54376,0.015251,4.59551
2420,54433,0.015251,4.60127
2422,54489,0.0115147,4.60684
2424,54543,0.0115147,4.61221
2426,54595,0.0078617,4.61748
2428,54649,0.00511878,4.62285
2430,54702,0.00511878,4.628125
2432,54759,0.00336339,4.63389
2434,54816,0.00336339,4.63955
2436,54872,0.00294366,4.64521
2438,54926,0.00306036,4.65059
2440,54980,0.00306036,4.65596
2442,55035,0.00334672,4.66143
2444,55088,0.00334672,4.6667
2446,55143,0.00386549,4.67227
2448,55193,0.00386549,4.67725
2450,55247,0.00437936,4.68262
2452,55303,0.00437936,4.68828
2454,55359,0.00490303,4.69385
2456,55415,0.00528941,4.69951
2458,55470,0.00528941,4.70498
2460,55588,0.00547182,4.7167
2462,55653,0.00558165,4.72324
2464,55715,0.00564834,4.72949
2466,55764,0.00564834,4.734375
2468,55821,0.00560911,4.74014
2470,55874,0.00560911,4.74531
2472,55927,0.00550516,4.75059
2474,55983,0.00533354,4.75625
2476,56040,0.00533354,4.76191
2478,56092,0.00507955,4.76719
2480,56146,0.00507955,4.77246
2482,56201,0.00493638,4.77803
2484,56259,0.00482066,4.78389
2486,56310,0.00482066,4.78896
2488,56367,0.00477653,4.79463
2490,56426,0.00477653,4.80059
2492,56479,0.00464414,4.80586
2494,56536,0.00464414,4.81152
2496,56590,0.00450586,4.81699
2498,56645,0.00455588,4.82246
2500,56699,0.00455588,4.82793
2502,56757,0.00457745,4.83369
2504,56814,0.00457745,4.83936
2506,56869,0.00460001,4.84482
2508,56975,0.00454999,4.85537
2510,57029,0.00439505,4.86084
2512,57082,0.00439505,4.86621
2514,57145,0.00430189,4.87246
2516,57198,0.00430189,4.87783
2518,57254,0.00438426,4.8834
2520,57311,0.00442349,4.88906
2522,57369,0.00442349,4.89482
2524,57422,0.00443918,4.9002
2526,57476,0.00443918,4.90557
2528,57528,0.00444506,4.91074
2530,57583,0.00444506,4.91631
2532,57637,0.00440093,4.92168
2534,57693,0.00442349,4.92725
2536,57746,0.00442349,4.93252
2538,57804,0.0044176,4.93838
2540,57856,0.0044176,4.94355
2542,57911,0.00431856,4.94912
2544,57966,0.00431856,4.95449
2546,58021,0.00414694,4.96006
2548,58078,0.00399788,4.96582
2550,58148,0.00399788,4.97275
2552,58203,0.00393708,4.97832
2554,58260,0.00402534,4.98389
2556,58317,0.00402534,4.98965
2558,58375,0.00408124,4.99473
2560,58431,0.00408124,4.99805
2562,58489,0.00413615,4.9998
2563,58514,0.00413615,5.0