File: tensile_tests/04.06.25_WT_dry_idx1.csv
,Time,Force (Newtons),Distance (millimeters)
0,1,-0.0308313,0.0
2,29,-0.0308313,0.0
4,53,-0.0307156,0.0
6,79,-0.0307156,0.0
8,106,-0.0307156,0.0
10,133,-0.0307156,0.0
12,159,-0.0306087,0.0
14,188,-0.0306087,0.0
16,215,-0.0306087,0.0
18,241,-0.0305116,0.0
20,268,-0.0305116,0.0
22,294,-0.0305116,0.0
24,319,-0.0305116,0.0
26,348,-0.0304234,0.0
28,374,-0.0304234,0.0
30,402,-0.0304234,0.0
32,430,-0.0303429,0.0
34,456,-0.0303429,0.0
36,484,-0.0303429,0.0
38,509,-0.0303429,0.0
40,535,-0.0302576,0.0
42,561,-0.0302576,0.0
44,588,-0.0302576,0.0
46,615,-0.0301762,0.0
48,641,-0.0301762,0.0
50,669,-0.0301762,0.0
52,696,-0.0301762,0.0
54,723,-0.0300978,0.0
56,749,-0.0300978,0.0
58,777,-0.0300978,0.0
60,804,-0.0300233,0.0
62,830,-0.0300233,0.0
64,857,-0.0300233,0.0
66,883,-0.0300233,0.0
68,909,-0.0299615,0.0
70,935,-0.0299615,0.0
72,959,-0.0299615,0.0
74,986,-0.0299615,0.0
76,1015,-0.0298938,0.0
78,1041,-0.0298938,0.0
80,1067,-0.0298938,0.0
82,1093,-0.0298281,0.0
84,1121,-0.0298281,0.0
86,1149,-0.0298281,0.0
88,1175,-0.0298281,0.0
90,1203,-0.0297761,0.0
92,1230,-0.0297761,0.0
94,1257,-0.0297761,0.0
96,1285,-0.0297153,0.0
98,1311,-0.0297153,0.0
100,1338,-0.0297153,0.0
102,1365,-0.0297153,0.0
104,1393,-0.0296594,0.0
106,1422,-0.0296594,0.0
108,1451,-0.0296594,0.0
110,1480,-0.0296006,0.0
112,1508,-0.0296006,0.0
114,1536,-0.0296006,0.0
116,1565,-0.0295359,0.0
118,1594,-0.0295359,0.0
120,1621,-0.0295359,0.0
122,1649,-0.0295359,0.0
124,1674,-0.0294809,0.0
126,1703,-0.0294809,0.0
128,1730,-0.0294809,0.0
130,1827,-0.0294368,0.0
132,1870,-0.0293937,0.0
134,1896,-0.0293937,0.0
136,1922,-0.0293937,0.0
138,1948,-0.0293554,0.0
140,1975,-0.0293554,0.0
142,2002,-0.0293554,0.0
144,2031,-0.0293554,0.0
146,2059,-0.0293103,0.0
148,2088,-0.0293103,0.0
150,2117,-0.0293103,0.0
152,2146,-0.0292524,0.0
154,2171,-0.0292524,0.0
156,2200,-0.0292524,0.0
158,2229,-0.0291995,0.0
160,2255,-0.0291995,0.0
162,2281,-0.0291995,0.0
164,2307,-0.0291995,0.0
166,2336,-0.0291475,0.0
168,2366,-0.0291475,0.0
170,2395,-0.0291475,0.0
172,2422,-0.0291053,0.0
174,2448,-0.0291053,0.0
176,2474,-0.0291053,0.0
178,2500,-0.0291053,0.0
180,2527,-0.0290691,0.0
182,2559,-0.0290691,0.0
184,2587,-0.0290691,0.0
186,2617,-0.0290249,0.0
188,2646,-0.0290249,0.0
190,2674,-0.0290249,0.0
192,2702,-0.0290249,0.0
194,2730,-0.0289828,0.0
196,2757,-0.0289828,0.0
198,2786,-0.0289828,0.0
200,2812,-0.0289406,0.0
202,2838,-0.0289406,0.0
204,2864,-0.0289406,0.0
206,2892,-0.0289406,0.0
208,2920,-0.0289043,0.0
210,2947,-0.0289043,0.0
212,2973,-0.0289043,0.0
214,3001,-0.028867,0.0
216,3029,-0.028867,0.0
218,3055,-0.028867,0.0
220,3083,-0.028867,0.0
222,3112,-0.0288268,0.0
224,3140,-0.0288268,0.0
226,3166,-0.0288268,0.0
228,3193,-0.0287876,0.0
230,3219,-0.0287876,0.0
232,3244,-0.0287876,0.0
234,3271,-0.0287876,0.0
236,3298,-0.0287435,0.0
238,3324,-0.0287435,0.0
240,3352,-0.0287435,0.0
242,3381,-0.0287043,0.0
244,3409,-0.0287043,0.0
246,3438,-0.0287043,0.0
248,3465,-0.0286719,0.0
250,3492,-0.0286719,0.0
252,3518,-0.0286719,0.0
254,3550,-0.0286719,0.0
256,3577,-0.0286297,0.0
258,3604,-0.0286297,0.0
260,3633,-0.0286297,0.0
262,3659,-0.0285846,0.0
264,3688,-0.0285846,0.0
266,3715,-0.0285846,0.0
268,3742,-0.0285846,0.0
270,3771,-0.0285542,0.0
272,3798,-0.0285542,0.0
274,3826,-0.0285542,0.0
276,3854,-0.0285081,0.0
278,3882,-0.0285081,0.0
280,3913,-0.0285081,0.0
282,3945,-0.0284689,0.0
284,3970,-0.0284689,0.0
286,4000,-0.0284689,0.0
288,4032,-0.0284689,0.0
290,4063,-0.0284346,0.0
292,4095,-0.0284346,0.0
294,4126,-0.0284346,0.0
296,4153,-0.0283963,0.0
298,4182,-0.0283963,0.0
300,4211,-0.0283963,0.0
302,4238,-0.0283659,0.0
304,4264,-0.0283659,0.0
306,4290,-0.0283659,0.0
308,4319,-0.0283659,0.0
310,4347,-0.0283375,0.0
312,4375,-0.0283375,0.0
314,4402,-0.0283375,0.0
316,4430,-0.0283061,0.0
318,4461,-0.0283061,0.0
320,4490,-0.0283061,0.0
322,4519,-0.0282669,0.0
324,4548,-0.0282669,0.0
326,4577,-0.0282669,0.0
328,4608,-0.0282306,0.0
330,4635,-0.0282306,0.0
332,4665,-0.0282306,0.0
334,4692,-0.0282306,0.0
336,4720,-0.0281933,0.0
338,4747,-0.0281933,0.0
340,4773,-0.0281933,0.0
342,4800,-0.0281521,0.0
344,4828,-0.0281521,0.0
346,4857,-0.0281521,0.0
348,4885,-0.0281521,0.0
350,4916,-0.02811,0.0
352,4948,-0.02811,0.0
354,4980,-0.02811,0.0
356,5011,-0.0280756,0.0
358,5036,-0.0280756,0.0
360,5065,-0.0280756,0.0
362,5095,-0.0280433,0.0
364,5125,-0.0280433,0.0
366,5152,-0.0280433,0.0
368,5182,-0.0280198,0.0
370,5214,-0.0280198,0.0
372,5246,-0.0280198,0.0
374,5274,-0.0280021,0.0
376,5300,-0.0280021,0.0
378,5331,-0.0280021,0.0
380,5364,-0.0280021,0.0
382,5390,-0.0279727,0.0
384,5418,-0.0279727,0.0
386,5449,-0.0279727,0.0
388,5481,-0.0279403,0.0
390,5511,-0.0279403,0.0
392,5541,-0.0279403,0.0
394,5567,-0.027905,0.0
396,5596,-0.027905,0.0
398,5626,-0.027905,0.0
400,5652,-0.0278648,0.0
402,5680,-0.0278648,0.0
404,5708,-0.0278648,0.0
406,5736,-0.0278648,0.0
408,5765,-0.0278383,0.0
410,5797,-0.0278383,0.0
412,5827,-0.0278383,0.0
414,5858,-0.0278187,0.0
416,5886,-0.0278187,0.0
418,5915,-0.0278187,0.0
420,5946,-0.0277922,0.0
422,5974,-0.0277922,0.0
424,6002,-0.0277922,0.0
426,6031,-0.0277922,0.0
428,6061,-0.0277628,0.0
430,6087,-0.0277628,0.0
432,6117,-0.0277628,0.0
434,6146,-0.0277236,0.0
436,6173,-0.0277236,0.0
438,6202,-0.0277236,0.0
440,6232,-0.0276853,0.0
442,6265,-0.0276853,0.0
444,6295,-0.0276853,0.0
446,6322,-0.0276628,0.0
448,6351,-0.0276628,0.0
450,6378,-0.0276628,0.0
452,6407,-0.0276628,0.0
454,6435,-0.0276461,0.0
456,6465,-0.0276461,0.0
458,6493,-0.0276461,0.0
460,6522,-0.0276216,0.0
462,6551,-0.0276216,0.0
464,6578,-0.0276216,0.0
466,6606,-0.0275922,0.0
468,6634,-0.0275922,0.0
470,6665,-0.0275922,0.0
472,6696,-0.0275922,0.0
474,6726,-0.0275667,0.0
476,6754,-0.0275667,0.0
478,6781,-0.0275667,0.0
480,6811,-0.0275422,0.0
482,6842,-0.0275422,0.0
484,6871,-0.0275422,0.0
486,6902,-0.0275216,0.0
488,6932,-0.0275216,0.0
490,6964,-0.0275216,0.0
492,6993,-0.027498,0.0
494,7022,-0.027498,0.0
496,7051,-0.027498,0.0
498,7081,-0.0274784,0.0
500,7127,-0.0274784,9.765625e-05
502,7168,-0.0274784,0.0001953125
504,7208,-0.0274559,0.000292969
506,7250,-0.0274559,0.0005859375
508,7288,-0.0274696,0.000878906
510,7327,-0.0274696,0.001171875
512,7369,-0.0275892,0.00166016
514,7407,-0.0275892,0.00214844
516,7449,-0.0275892,0.00273438
518,7490,-0.0277256,0.00341797
520,7529,-0.0277256,0.00410156
522,7569,-0.0277187,0.00488281
524,7607,-0.0277187,0.00566406
526,7643,-0.0277187,0.00654297
528,7681,-0.0273186,0.007421875
530,7719,-0.0273186,0.00839844
532,7758,-0.0261545,0.00947266
534,7793,-0.0261545,0.0105469
536,7879,-0.0238225,0.0132813
538,7922,-0.0238225,0.0147461
540,7960,-0.0184524,0.0162109
542,8002,-0.0184524,0.0177734
544,8044,-0.00698841,0.0194336
546,8084,-0.00698841,0.02109375
548,8122,-0.00698841,0.0227539
550,8162,0.0115373,0.0245117
552,8200,0.0115373,0.0263672
554,8243,0.0365247,0.028418
556,8287,0.0365247,0.0306641
558,8339,0.0646129,0.0333984
560,8385,0.0646129,0.0359375
562,8428,0.0915096,0.03828125
564,8471,0.0915096,0.0408203
566,8514,0.115678,0.043457
568,8556,0.115678,0.0459961
570,8598,0.135277,0.0487305
572,8642,0.135277,0.0514648
574,8725,0.151758,0.0573242
576,8765,0.151758,0.06015625
578,8809,0.170252,0.0632813
580,8848,0.170252,0.0663086
582,8893,0.194122,0.0697266
584,8935,0.194122,0.0730469
586,8976,0.194122,0.0763672
588,9020,0.227747,0.0798828
590,9061,0.227747,0.0833984
592,9101,0.271964,0.0868164
594,9141,0.271964,0.0902344
596,9179,0.320699,0.0936523
598,9220,0.320699,0.0973633
600,9258,0.320699,0.100879
602,9299,0.365876,0.104785
604,9342,0.365876,0.108887
606,9484,0.436793,0.122852
608,9526,0.436793,0.127148
610,9573,0.471543,0.131836
612,9614,0.471543,0.136035
614,9656,0.511343,0.140137
616,9696,0.511343,0.144141
618,9739,0.557624,0.148535
620,9779,0.557624,0.152441
622,9818,0.557624,0.156348
624,9861,0.603574,0.160645
626,9901,0.603574,0.164648
628,9949,0.644751,0.169434
630,9992,0.644751,0.173828
632,10032,0.678271,0.177734
634,10127,0.709401,0.182129
636,10176,0.709401,0.19209
638,10215,0.735214,0.196094
640,10258,0.735214,0.200391
642,10298,0.735214,0.204395
644,10339,0.759505,0.208496
646,10380,0.759505,0.212598
648,10424,0.785114,0.216895
650,10464,0.785114,0.220996
652,10506,0.806727,0.225098
654,10548,0.806727,0.229395
656,10591,0.806727,0.233594
658,10629,0.828067,0.2375
660,10672,0.828067,0.241699
662,10709,0.847109,0.245508
664,10752,0.847109,0.249707
666,10794,0.86501,0.253906
668,10834,0.86501,0.258008
670,10875,0.86501,0.262109
672,10917,0.884644,0.266211
674,10998,0.90314,0.274316
676,11051,0.90314,0.27959
678,11092,0.924263,0.283691
680,11133,0.924263,0.287793
682,11173,0.948145,0.291895
684,11211,0.948145,0.295605
686,11251,0.948145,0.299707
688,11291,0.971179,0.303711
690,11332,0.971179,0.3078125
692,11378,0.996438,0.312305
694,11418,0.996438,0.316406
696,11460,1.01988,0.320605
698,11499,1.01988,0.324512
700,11539,1.01988,0.328418
702,11581,1.04004,0.332715
704,11623,1.04004,0.336816
706,11661,1.06041,0.340723
708,11701,1.06041,0.344727
710,11744,1.07745,0.348926
712,11784,1.07745,0.353027
714,11879,1.09432,0.362402
716,11923,1.09432,0.366895
718,11963,1.11115,0.370898
720,12006,1.11115,0.375195
722,12048,1.12498,0.379297
724,12090,1.12498,0.383594
726,12129,1.1406,0.3875
728,12172,1.1406,0.391699
730,12213,1.15596,0.395898
732,12256,1.15596,0.400195
734,12297,1.15596,0.404297
736,12340,1.17145,0.408594
738,12380,1.17145,0.412598
740,12423,1.18898,0.416895
742,12463,1.18898,0.420801
744,12508,1.20356,0.425293
746,12549,1.20356,0.429395
748,12593,1.21827,0.433789
750,12633,1.21827,0.437891
752,12675,1.21827,0.44209
754,12771,1.23287,0.451563
756,12815,1.24623,0.456055
758,12855,1.24623,0.460059
760,12897,1.26197,0.464258
762,12940,1.26197,0.468555
764,12980,1.27608,0.472559
766,13024,1.27608,0.476953
768,13065,1.27608,0.481055
770,13105,1.28973,0.485059
772,13147,1.28973,0.489258
774,13189,1.30477,0.493359
776,13227,1.30477,0.497266
778,13272,1.3181,0.501758
780,13315,1.3181,0.506055
782,13357,1.33314,0.510254
784,13399,1.33314,0.514453
786,13443,1.33314,0.518848
788,13542,1.34708,0.528711
790,13582,1.35821,0.5328125
792,13626,1.35821,0.537207
794,13715,1.3705,0.545996
796,13764,1.3811,0.550977
798,13807,1.3811,0.555273
800,13850,1.39297,0.55957
802,13893,1.39297,0.563867
804,13935,1.40649,0.568066
806,13979,1.40649,0.572363
808,14022,1.41805,0.576758
810,14065,1.41805,0.581055
812,14106,1.41805,0.585156
814,14146,1.43181,0.58916
816,14185,1.43181,0.593066
818,14228,1.44559,0.597266
820,14269,1.44559,0.601465
822,14312,1.45917,0.605762
824,14354,1.45917,0.609863
826,14398,1.45917,0.614258
828,14441,1.47466,0.618652
830,14483,1.47466,0.622852
832,14526,1.48677,0.627148
834,14626,1.49844,0.637109
836,14669,1.49844,0.641504
838,14711,1.50994,0.645703
840,14755,1.50994,0.650098
842,14797,1.51978,0.654297
844,14841,1.51978,0.658691
846,14883,1.53221,0.662891
848,14929,1.53221,0.66748
850,14973,1.54358,0.671777
852,15013,1.54358,0.675781
854,15056,1.54358,0.680078
856,15098,1.55476,0.684375
858,15144,1.55476,0.688965
860,15188,1.56861,0.693359
862,15231,1.56861,0.697559
864,15275,1.58183,0.702051
866,15315,1.58183,0.705957
868,15359,1.59775,0.710449
870,15408,1.59775,0.715332
872,15449,1.61419,0.719434
874,15546,1.62805,0.729102
876,15593,1.62805,0.733789
878,15633,1.62805,0.737891
880,15678,1.643,0.742383
882,15723,1.643,0.746777
884,15767,1.65606,0.751172
886,15810,1.65606,0.755566
888,15855,1.66902,0.760059
890,15897,1.66902,0.764258
892,15943,1.68256,0.768848
894,15986,1.68256,0.773145
896,16028,1.69278,0.777344
898,16072,1.69278,0.781738
900,16114,1.7038,0.785938
902,16158,1.7038,0.790332
904,16200,1.7038,0.794531
906,16246,1.71445,0.799121
908,16292,1.71445,0.803711
910,16336,1.72443,0.808105
912,16437,1.73686,0.818164
914,16483,1.73686,0.822852
916,16527,1.74646,0.827246
918,16575,1.74646,0.832031
920,16616,1.7554,0.836133
922,16662,1.7554,0.840723
924,16706,1.76514,0.845117
926,16750,1.76514,0.849512
928,16794,1.77359,0.853906
930,16881,1.78507,0.862598
932,16939,1.78507,0.868359
934,16984,1.7964,0.872949
936,17029,1.7964,0.877441
938,17072,1.80717,0.881738
940,17117,1.80717,0.88623
942,17162,1.82053,0.890723
944,17206,1.82053,0.895215
946,17248,1.82053,0.899316
948,17293,1.83327,0.903906
950,17367,1.84883,0.91123
952,17489,1.86555,0.9234375
954,17543,1.87987,0.928809
956,17593,1.87987,0.933887
958,17641,1.89558,0.938672
960,17690,1.89558,0.943555
962,17731,1.90951,0.947559
964,17775,1.90951,0.951953
966,17816,1.90951,0.956055
968,17861,1.92346,0.960645
970,17903,1.92346,0.964844
972,17945,1.9391,0.969043
974,17990,1.9391,0.973438
976,18036,1.95227,0.978125
978,18078,1.95227,0.982324
980,18124,1.96709,0.986914
982,18170,1.96709,0.991602
984,18212,1.98298,0.995801
986,18257,1.98298,1.0002
988,18299,1.99895,1.00439
990,18345,1.99895,1.00898
992,18450,2.01839,1.01953
994,18494,2.03611,1.02393
996,18535,2.03611,1.02803
998,18582,2.03611,1.03271
1000,18626,2.05315,1.03711
1002,18670,2.05315,1.0415
1004,18712,2.07099,1.0457
1006,18757,2.07099,1.0502
1008,18800,2.08693,1.05449
1010,18842,2.08693,1.05879
1012,18887,2.10504,1.06318
1014,18932,2.10504,1.06777
1016,18978,2.12247,1.07236
1018,19022,2.12247,1.07676
1020,19069,2.13824,1.08135
1022,19114,2.13824,1.08594
1024,19163,2.15607,1.09082
1026,19210,2.15607,1.09551
1028,19255,2.17286,1.1
1030,19354,2.19207,1.10996
1032,19402,2.19207,1.11475
1034,19447,2.21318,1.11924
1036,19492,2.21318,1.12373
1038,19535,2.23196,1.12803
1040,19581,2.23196,1.13262
1042,19627,2.23196,1.13721
1044,19674,2.25213,1.14189
1046,19720,2.25213,1.14648
1048,19765,2.27087,1.15107
1050,19814,2.27087,1.15596
1052,19861,2.28914,1.16055
1054,19907,2.28914,1.16514
1056,19953,2.30932,1.16982
1058,19998,2.30932,1.17432
1060,20043,2.32713,1.17881
1062,20091,2.32713,1.18369
1064,20134,2.34622,1.18789
1066,20180,2.34622,1.19248
1068,20225,2.36653,1.19697
1070,20330,2.38658,1.20742
1072,20377,2.38658,1.21221
1074,20426,2.41012,1.21709
1076,20474,2.41012,1.221875
1078,20521,2.43196,1.22656
1080,20567,2.43196,1.23115
1082,20617,2.4524,1.23623
1084,20663,2.4524,1.24082
1086,20708,2.47334,1.24531
1088,20753,2.47334,1.2498
1090,20798,2.4919,1.2543
1092,20842,2.4919,1.25879
1094,20885,2.51255,1.26309
1096,20930,2.51255,1.26748
1098,20975,2.5332,1.27207
1100,21020,2.5332,1.27646
1102,21065,2.55252,1.28096
1104,21111,2.55252,1.28555
1106,21156,2.57462,1.29014
1108,21202,2.57462,1.29463
1110,21309,2.59606,1.30547
1112,21354,2.61959,1.30986
1114,21400,2.61959,1.31445
1116,21448,2.64515,1.31934
1118,21492,2.64515,1.32373
1120,21537,2.66773,1.32822
1122,21583,2.66773,1.33281
1124,21630,2.69141,1.3375
1126,21676,2.69141,1.34209
1128,21723,2.71416,1.34687
1130,21768,2.71416,1.35127
1132,21814,2.71416,1.35586
1134,21859,2.73626,1.36045
1136,21908,2.73626,1.36533
1138,21954,2.76065,1.36982
1140,21999,2.76065,1.37441
1142,22046,2.78247,1.3791
1144,22093,2.78247,1.38369
1146,22141,2.80459,1.38867
1148,22188,2.80459,1.39326
1150,22281,2.82764,1.40264
1152,22330,2.84985,1.40742
1154,22378,2.84985,1.4123
1156,22426,2.87555,1.41699
1158,22471,2.87555,1.42158
1160,22515,2.90024,1.42598
1162,22559,2.90024,1.43037
1164,22604,2.92376,1.43486
1166,22648,2.92376,1.43926
1168,22693,2.94869,1.44375
1170,22737,2.94869,1.44814
1172,22782,2.97123,1.45273
1174,22828,2.97123,1.45732
1176,22872,2.99508,1.46172
1178,22916,2.99508,1.46611
1180,22961,3.01894,1.47061
1182,23009,3.01894,1.47539
1184,23056,3.04048,1.48018
1186,23103,3.04048,1.48477
1188,23147,3.06451,1.48916
1190,23192,3.06451,1.49375
1192,23299,3.08822,1.5043
1194,23347,3.1136,1.50918
1196,23393,3.1136,1.51387
1198,23439,3.1416,1.51836
1200,23484,3.1416,1.52295
1202,23527,3.16656,1.52725
1204,23576,3.16656,1.53203
1206,23623,3.19204,1.53682
1208,23667,3.19204,1.54111
1210,23712,3.19204,1.5457
1212,23760,3.21633,1.55049
1214,23807,3.21633,1.55518
1216,23855,3.23882,1.55996
1218,23899,3.23882,1.56436
1220,23944,3.26326,1.56895
1222,23991,3.26326,1.57363
1224,24038,3.28515,1.57822
1226,24084,3.28515,1.58291
1228,24133,3.30686,1.5877
1230,24183,3.30686,1.59277
1232,24279,3.32978,1.60234
1234,24327,3.35156,1.60723
1236,24374,3.35156,1.61191
1238,24418,3.37659,1.61631
1240,24464,3.37659,1.6209
1242,24514,3.40097,1.62588
1244,24560,3.40097,1.63047
1246,24609,3.42358,1.63535
1248,24658,3.42358,1.64033
1250,24705,3.44758,1.64492
1252,24749,3.44758,1.64932
1254,24797,3.46941,1.6542
1256,24844,3.46941,1.65889
1258,24891,3.4927,1.66357
1260,24937,3.4927,1.66816
1262,24981,3.51693,1.67266
1264,25026,3.51693,1.67705
1266,25070,3.53899,1.68154
1268,25116,3.53899,1.68604
1270,25217,3.56328,1.69609
1272,25266,3.58671,1.70098
1274,25313,3.58671,1.70586
1276,25361,3.6106,1.71055
1278,25409,3.6106,1.71543
1280,25458,3.63708,1.72031
1282,25504,3.63708,1.7249
1284,25552,3.66054,1.72969
1286,25599,3.66054,1.734375
1288,25645,3.68467,1.73896
1290,25693,3.68467,1.74375
1292,25741,3.70864,1.74863
1294,25785,3.70864,1.75303
1296,25834,3.73086,1.75791
1298,25883,3.73086,1.76279
1300,25929,3.7555,1.76738
1302,25979,3.7555,1.77236
1304,26025,3.77779,1.77695
1306,26069,3.77779,1.78135
1308,26116,3.79907,1.78613
1310,26212,3.82139,1.7957
1312,26260,3.82139,1.80049
1314,26337,3.84157,1.8082
1316,26386,3.86466,1.81309
1318,26432,3.86466,1.81768
1320,26480,3.88765,1.82246
1322,26527,3.88765,1.82725
1324,26575,3.90804,1.83193
1326,26620,3.90804,1.83652
1328,26666,3.92942,1.84102
1330,26716,3.92942,1.84609
1332,26765,3.94756,1.85098
1334,26813,3.94756,1.85576
1336,26862,3.96516,1.86064
1338,26910,3.96516,1.86543
1340,26959,3.98264,1.87041
1342,27009,3.98264,1.87529
1344,27060,3.99666,1.88047
1346,27108,3.99666,1.88525
1348,27160,4.01209,1.89053
1350,27250,4.02709,1.89941
1352,27310,4.02709,1.90547
1354,27354,4.04256,1.90986
1356,27404,4.04256,1.91484
1358,27451,4.06076,1.91953
1360,27501,4.06076,1.92451
1362,27551,4.07541,1.92959
1364,27600,4.07541,1.93447
1366,27649,4.08914,1.93936
1368,27698,4.08914,1.94424
1370,27745,4.10188,1.94893
1372,27795,4.10188,1.954
1374,27847,4.1117,1.95908
1376,27897,4.1117,1.96416
1378,27947,4.12293,1.96914
1380,27995,4.12293,1.97393
1382,28043,4.13124,1.97881
1384,28093,4.13741,1.98379
1386,28142,4.13741,1.98867
1388,28192,4.14417,1.99365
1390,28285,4.14811,2.00293
1392,28343,4.14811,2.00869
1394,28391,4.15364,2.01357
1396,28438,4.15364,2.01826
1398,28485,4.15802,2.02305
1400,28537,4.15802,2.028125
1402,28584,4.15845,2.03291
1404,28636,4.15845,2.03809
1406,28684,4.15926,2.04287
1408,28737,4.15926,2.04814
1410,28785,4.15713,2.05293
1412,28837,4.15713,2.05811
1414,28885,4.15478,2.06299
1416,28936,4.15478,2.06797
1418,28986,4.1531,2.07305
1420,29034,4.1531,2.07793
1422,29085,4.14766,2.08301
1424,29132,4.14766,2.0877
1426,29183,4.14242,2.09277
1428,29286,4.13506,2.10303
1430,29341,4.12575,2.10859
1432,29392,4.12575,2.11367
1434,29442,4.11785,2.11865
1436,29489,4.11785,2.12334
1438,29539,4.10575,2.12842
1440,29588,4.10575,2.1333
1442,29636,4.09196,2.13809
1444,29685,4.09196,2.14297
1446,29736,4.0767,2.14814
1448,29786,4.0767,2.15312
1450,29839,4.05702,2.1583
1452,29884,4.05702,2.16279
1454,29932,4.03671,2.16768
1456,29981,4.03671,2.17256
1458,30031,4.01208,2.17764
1460,30081,4.01208,2.18262
1462,30132,3.98411,2.1877
1464,30184,3.95639,2.19287
1466,30286,3.9263,2.20303
1468,30344,3.9263,2.20889
1470,30394,3.89812,2.21387
1472,30444,3.89812,2.21885
1474,30492,3.86951,2.22363
1476,30539,3.86951,2.22832
1478,30593,3.83788,2.23379
1480,30644,3.83788,2.23887
1482,30692,3.80786,2.24375
1484,30743,3.80786,2.24873
1486,30793,3.77677,2.25371
1488,30844,3.77677,2.25889
1490,30894,3.74697,2.26387
1492,30942,3.74697,2.26865
1494,30989,3.71874,2.27334
1496,31043,3.68724,2.27871
1498,31089,3.68724,2.2833
1500,31136,3.65587,2.28799
1502,31188,3.65587,2.29326
1504,31237,3.62238,2.29814
1506,31351,3.58748,2.30957
1508,31407,3.58748,2.31514
1510,31458,3.55469,2.32031
1512,31507,3.55469,2.3251
1514,31555,3.51895,2.32998
1516,31604,3.51895,2.33486
1518,31649,3.48351,2.33936
1520,31701,3.48351,2.34453
1522,31749,3.44891,2.34932
1524,31798,3.44891,2.3542
1526,31846,3.41292,2.35908
1528,31894,3.41292,2.36387
1530,31942,3.3797,2.36865
1532,31993,3.34562,2.37373
1534,32045,3.34562,2.37891
1536,32095,3.31171,2.38389
1538,32150,3.31171,2.38945
1540,32202,3.28082,2.39463
1542,32254,3.28082,2.3999
1544,32303,3.25012,2.40469
1546,32414,3.22375,2.41494
1548,32465,3.22375,2.421
1550,32517,3.19827,2.42617
1552,32570,3.1712,2.43135
1554,32619,3.1712,2.43633
1556,32664,3.1471,2.44092
1558,32713,3.1471,2.4457
1560,32765,3.12283,2.45098
1562,32814,3.12283,2.45586
1564,32865,3.10118,2.46094
1566,32915,3.10118,2.46592
1568,32965,3.08238,2.4709
1570,33014,3.08238,2.47588
1572,33067,3.06178,2.48115
1574,33114,3.06178,2.48594
1576,33163,3.04306,2.49072
1578,33211,3.04306,2.49551
1580,33259,3.02395,2.50039
1582,33311,3.02395,2.50547
1584,33362,3.0054,2.51055
1586,33468,2.98992,2.52129
1588,33517,2.97197,2.52607
1590,33566,2.97197,2.53105
1592,33617,2.95465,2.53623
1594,33668,2.95465,2.54121
1596,33718,2.93805,2.54619
1598,33764,2.93805,2.55088
1600,33814,2.92019,2.55586
1602,33865,2.92019,2.56094
1604,33916,2.90479,2.56602
1606,33968,2.90479,2.57119
1608,34017,2.88782,2.57617
1610,34069,2.88782,2.58135
1612,34122,2.87021,2.58662
1614,34173,2.87021,2.5917
1616,34219,2.85453,2.59639
1618,34268,2.85453,2.60117
1620,34317,2.83751,2.60615
1622,34429,2.82279,2.6166
1624,34480,2.80657,2.62246
1626,34531,2.80657,2.62764
1628,34582,2.78538,2.63262
1630,34633,2.78538,2.6377
1632,34684,2.76381,2.64287
1634,34735,2.76381,2.64795
1636,34784,2.7393,2.65283
1638,34828,2.7393,2.65732
1640,34881,2.71512,2.6625
1642,34930,2.71512,2.66738
1644,34981,2.69347,2.67256
1646,35038,2.67054,2.67832
1648,35085,2.67054,2.68291
1650,35137,2.65021,2.68809
1652,35187,2.65021,2.69307
1654,35240,2.63104,2.69844
1656,35289,2.63104,2.70342
1658,35339,2.61248,2.7084
1660,35387,2.61248,2.71309
1662,35487,2.59716,2.72314
1664,35539,2.57968,2.72832
1666,35589,2.57968,2.7334
1668,35640,2.56217,2.73838
1670,35690,2.56217,2.74346
1672,35738,2.54552,2.74834
1674,35790,2.54552,2.75352
1676,35843,2.52756,2.75879
1678,35895,2.51226,2.76387
1680,35946,2.51226,2.76904
1682,35999,2.49581,2.77422
1684,36051,2.49581,2.77949
1686,36101,2.47823,2.78447
1688,36153,2.47823,2.78965
1690,36205,2.46267,2.79492
1692,36256,2.46267,2.8001
1694,36310,2.44621,2.80547
1696,36362,2.44621,2.81064
1698,36413,2.43266,2.81572
1700,36463,2.4199,2.82061
1702,36561,2.40478,2.83057
1704,36612,2.40478,2.83564
1706,36713,2.39113,2.8457
1708,36763,2.37592,2.85068
1710,36815,2.37592,2.85596
1712,36863,2.36136,2.86074
1714,36911,2.36136,2.865625
1716,36961,2.34895,2.87061
1718,37013,2.34895,2.87568
1720,37063,2.33478,2.88066
1722,37114,2.33478,2.88574
1724,37164,2.3229,2.89082
1726,37215,2.3229,2.8959
1728,37264,2.31206,2.90088
1730,37316,2.30157,2.90596
1732,37365,2.30157,2.91094
1734,37413,2.29406,2.91572
1736,37463,2.29406,2.9207
1738,37515,2.28441,2.92588
1740,37572,2.28441,2.93164
1742,37686,2.27472,2.94297
1744,37738,2.26567,2.94824
1746,37791,2.25505,2.95352
1748,37842,2.25505,2.95859
1750,37896,2.24664,2.96396
1752,37945,2.24664,2.96895
1754,37997,2.23674,2.97402
1756,38048,2.23674,2.9792
1758,38101,2.22532,2.98457
1760,38154,2.22532,2.98984
1762,38206,2.21586,2.99502
1764,38257,2.21586,3.0002
1766,38311,2.20552,3.00557
1768,38362,2.19785,3.01064
1770,38413,2.19785,3.01572
1772,38465,2.19091,3.021
1774,38515,2.19091,3.02598
1776,38572,2.18133,3.03164
1778,38625,2.18133,3.03691
1780,38678,2.17277,3.04219
1782,38792,2.16245,3.05361
1784,38845,2.15302,3.05889
1786,38896,2.15302,3.06396
1788,38947,2.14615,3.06904
1790,39000,2.14615,3.07441
1792,39057,2.13825,3.08008
1794,39109,2.13825,3.08535
1796,39160,2.13339,3.09043
1798,39214,2.13339,3.0958
1800,39266,2.12979,3.10098
1802,39319,2.1264,3.10635
1804,39369,2.1264,3.11123
1806,39417,2.12531,3.11611
1808,39469,2.12531,3.12129
1810,39519,2.12062,3.12627
1812,39573,2.12062,3.13174
1814,39628,2.11445,3.13711
1816,39682,2.11445,3.14258
1818,39735,2.10812,3.14795
1820,39835,2.09985,3.15781
1822,39897,2.0941,3.16406
1824,39952,2.0941,3.16963
1826,40003,2.08771,3.17461
1828,40054,2.08771,3.17979
1830,40103,2.08059,3.18467
1832,40156,2.08059,3.18994
1834,40207,2.07586,3.19512
1836,40261,2.07586,3.20049
1838,40313,2.07036,3.20566
1840,40363,2.06717,3.21064
1842,40415,2.06717,3.21592
1844,40465,2.06412,3.221
1846,40516,2.06412,3.22598
1848,40571,2.05781,3.23154
1850,40620,2.05781,3.23643
1852,40674,2.05208,3.2418
1854,40728,2.05208,3.24727
1856,40779,2.04421,3.25234
1858,40833,2.04421,3.25771
1860,40908,2.03634,3.26523
1862,41076,2.02016,3.28193
1864,41135,2.01109,3.28789
1866,41191,2.01109,3.29346
1868,41239,2.00213,3.29824
1870,41291,2.00213,3.30352
1872,41346,1.99363,3.30898
1874,41397,1.99363,3.31406
1876,41450,1.98984,3.31943
1878,41503,1.98592,3.32461
1880,41561,1.98592,3.33047
1882,41612,1.98314,3.33564
1884,41662,1.98314,3.34062
1886,41712,1.98192,3.34561
1888,41763,1.98192,3.35068
1890,41811,1.97871,3.35557
1892,41861,1.97871,3.36055
1894,41910,1.9774,3.36533
1896,41961,1.9774,3.37051
1898,42011,1.97509,3.37559
1900,42061,1.97509,3.38047
1902,42148,1.97115,3.38916
1904,42211,1.96861,3.39551
1906,42261,1.96413,3.40049
1908,42312,1.96413,3.40557
1910,42361,1.96044,3.41055
1912,42412,1.96044,3.415625
1914,42461,1.95613,3.42051
1916,42513,1.95613,3.42568
1918,42562,1.94849,3.43066
1920,42611,1.94849,3.43555
1922,42661,1.9414,3.44053
1924,42711,1.9414,3.44551
1926,42761,1.93217,3.45059
1928,42813,1.93217,3.45566
1930,42860,1.92253,3.46045
1932,42912,1.92253,3.465625
1934,42961,1.91379,3.47051
1936,43011,1.91379,3.47549
1938,43062,1.90213,3.48057
1940,43168,1.89212,3.49121
1942,43239,1.88299,3.49834
1944,43294,1.88299,3.50381
1946,43345,1.87434,3.50889
1948,43396,1.87434,3.51396
1950,43447,1.86931,3.51904
1952,43500,1.86246,3.52441
1954,43552,1.86246,3.52969
1956,43537,1.85523,3.54199
1958,43654,1.83951,3.55371
1960,43724,1.83951,3.56074
1962,43774,1.8328,3.56572
1964,43831,1.8328,3.57148
1966,43877,1.82551,3.57607
1968,43927,1.82551,3.58115
1970,43983,1.81775,3.58662
1972,44031,1.81245,3.5915
1974,44079,1.81245,3.59629
1976,44131,1.80589,3.60137
1978,44184,1.80589,3.60674
1980,44321,1.79754,3.62041
1982,44374,1.79754,3.62568
1984,44428,1.79101,3.63115
1986,44485,1.79101,3.63682
1988,44540,1.78582,3.64229
1990,44591,1.78582,3.64746
1992,44645,1.77934,3.65283
1994,44701,1.77278,3.6584
1996,44755,1.77278,3.66377
1998,44806,1.76798,3.66895
2000,44859,1.76798,3.67422
2002,44915,1.76093,3.67979
2004,44971,1.76093,3.68545
2006,45024,1.75514,3.69072
2008,45077,1.74988,3.696
2010,45132,1.74988,3.70156
2012,45186,1.74448,3.70693
2014,45242,1.74448,3.7126
2016,45302,1.74203,3.71855
2018,45355,1.73746,3.72393
2020,45471,1.73244,3.73535
2022,45524,1.73244,3.74072
2024,45579,1.72781,3.74629
2026,45635,1.72781,3.75186
2028,45690,1.72127,3.75732
2030,45741,1.71685,3.7624
2032,45794,1.71685,3.76777
2034,45849,1.71158,3.77324
2036,45900,1.71158,3.77842
2038,45954,1.70524,3.78369
2040,46008,1.70524,3.78906
2042,46062,1.70125,3.79463
2044,46114,1.70125,3.7998
2046,46168,1.69645,3.80518
2048,46224,1.69379,3.81074
2050,46278,1.69379,3.81611
2052,46333,1.69205,3.82158
2054,46388,1.69205,3.82715
2056,46442,1.68773,3.83252
2058,46547,1.68491,3.84297
2060,46614,1.68097,3.84971
2062,46671,1.68097,3.85537
2064,46725,1.67701,3.86084
2066,46780,1.67701,3.86631
2068,46834,1.67433,3.87168
2070,46887,1.66873,3.87695
2072,46941,1.66873,3.88242
2074,46994,1.66438,3.8877
2076,47050,1.66438,3.89326
2078,47102,1.66098,3.89854
2080,47157,1.66098,3.90391
2082,47209,1.65755,3.90928
2084,47260,1.65714,3.91436
2086,47317,1.65714,3.92002
2088,47371,1.65483,3.92539
2090,47425,1.65483,3.93086
2092,47480,1.65249,3.93633
2094,47536,1.65249,3.94189
2096,47588,1.65194,3.94707
2098,47762,1.65136,3.96445
2100,47819,1.65136,3.97021
2102,47874,1.65044,3.97568
2104,47927,1.64653,3.98096
2106,47982,1.64653,3.98652
2108,48032,1.64247,3.9915
2110,48086,1.64247,3.99697
2112,48141,1.63589,4.00244
2114,48194,1.63589,4.00771
2116,48253,1.62992,4.01357
2118,48308,1.62404,4.01914
2120,48363,1.62404,4.02461
2122,48420,1.61569,4.03037
2124,48474,1.61569,4.03574
2126,48533,1.60848,4.0416
2128,48585,1.60848,4.046875
2130,48642,1.60006,4.05244
2132,48696,1.59222,4.05791
2134,48752,1.59222,4.06357
2136,48809,1.58628,4.06924
2138,48911,1.57819,4.07949
2140,48980,1.57177,4.08633
2142,49037,1.57177,4.09199
2144,49092,1.5662,4.09756
2146,49149,1.5662,4.10322
2148,49203,1.56031,4.10859
2150,49254,1.55701,4.11367
2152,49308,1.55701,4.11904
2154,49362,1.5516,4.12451
2156,49421,1.5516,4.13047
2158,49477,1.54478,4.13604
2160,49535,1.54478,4.1418
2162,49591,1.53786,4.14736
2164,49644,1.52923,4.15273
2166,49703,1.52923,4.15859
2168,49758,1.5229,4.16416
2170,49811,1.5229,4.16943
2172,49868,1.51627,4.1751
2174,49923,1.5091,4.18057
2176,49978,1.5091,4.18613
2178,50089,1.50373,4.19727
2180,50142,1.49649,4.20244
2182,50195,1.49649,4.20781
2184,50251,1.48997,4.21348
2186,50306,1.48245,4.21895
2188,50360,1.48245,4.22432
2190,50423,1.47104,4.23066
2192,50475,1.47104,4.23584
2194,50527,1.46025,4.24102
2196,50583,1.46025,4.24668
2198,50640,1.44852,4.25234
2200,50695,1.43811,4.25781
2202,50752,1.43811,4.26357
2204,50807,1.43069,4.26895
2206,50860,1.43069,4.27432
2208,50919,1.42214,4.28018
2210,50976,1.41529,4.28584
2212,51028,1.41529,4.29111
2214,51086,1.40911,4.296875
2216,51188,1.40273,4.30713
2218,51242,1.40273,4.3125
2220,51303,1.39919,4.31865
2222,51357,1.39414,4.32402
2224,51411,1.39414,4.32939
2226,51469,1.389,4.33525
2228,51524,1.389,4.34072
2230,51581,1.38494,4.34639
2232,51636,1.37924,4.35195
2234,51689,1.37924,4.35723
2236,51742,1.37507,4.3625
2238,51794,1.37507,4.36777
2240,51853,1.36975,4.37363
2242,51907,1.36975,4.379
2244,51959,1.36315,4.38418
2246,52019,1.35851,4.39023
2248,52076,1.35851,4.3958
2250,52133,1.35303,4.40156
2252,52190,1.35303,4.40732
2254,52307,1.34547,4.41904
2256,52360,1.34547,4.42432
2258,52417,1.33945,4.42998
2260,52475,1.33945,4.43584
2262,52530,1.33521,4.44131
2264,52585,1.33077,4.44678
2266,52642,1.33077,4.45244
2268,52700,1.32745,4.4583
2270,52757,1.32745,4.46406
2272,52812,1.32597,4.46953
2274,52870,1.32231,4.47529
2276,52925,1.32231,4.48076
2278,52979,1.3196,4.48613
2280,53036,1.3196,4.49189
2282,53091,1.31699,4.49736
2284,53145,1.31699,4.50283
2286,53205,1.31353,4.50879
2288,53257,1.3115,4.51406
2290,53311,1.3115,4.51943
2292,53420,1.30602,4.53027
2294,53485,1.29872,4.53682
2296,53539,1.29122,4.54219
2298,53591,1.29122,4.54746
2300,53647,1.28189,4.55303
2302,53705,1.28189,4.55879
2304,53759,1.27499,4.56416
2306,53820,1.26775,4.57031
2308,53873,1.26775,4.57559
2310,53929,1.25945,4.58115
2312,53986,1.25945,4.58701
2314,54042,1.25289,4.59248
2316,54094,1.25289,4.59766
2318,54153,1.24532,4.60361
2320,54208,1.23943,4.60908
2322,54265,1.23943,4.61484
2324,54324,1.23423,4.6207
2326,54382,1.23423,4.62646
2328,54442,1.22675,4.63252
2330,54500,1.22024,4.63828
2332,54559,1.22024,4.64414
2334,54670,1.21244,4.65527
2336,54726,1.20471,4.66094
2338,54782,1.19835,4.6665
2340,54836,1.19835,4.671875
2342,54891,1.19022,4.67744
2344,54947,1.19022,4.68301
2346,55005,1.18363,4.68887
2348,55059,1.17768,4.69424
2350,55112,1.17768,4.69951
2352,55169,1.17163,4.70518
2354,55227,1.17163,4.71094
2356,55280,1.16813,4.71631
2358,55336,1.16813,4.721875
2360,55393,1.16328,4.72754
2362,55456,1.15868,4.73389
2364,55509,1.15868,4.73926
2366,55566,1.15596,4.74482
2368,55622,1.15596,4.75049
2370,55679,1.15279,4.75625
2372,55784,1.15179,4.7667
2374,55842,1.15056,4.77246
2376,55904,1.15056,4.77861
2378,55960,1.14834,4.78428
2380,56015,1.14814,4.78975
2382,56075,1.14814,4.7958
2384,56129,1.14715,4.80117
2386,56189,1.14715,4.80723
2388,56248,1.14721,4.81309
2390,56303,1.14718,4.81865
2392,56359,1.14718,4.82422
2394,56417,1.14376,4.82998
2396,56474,1.14376,4.83574
2398,56532,1.14098,4.8415
2400,56586,1.13748,4.846875
2402,56642,1.13748,4.85254
2404,56695,1.13472,4.85781
2406,56755,1.13472,4.86377
2408,56809,1.13452,4.86924
2410,56865,1.13249,4.8748
2412,56921,1.13249,4.88037
2414,57023,1.13111,4.89053
2416,57081,1.1298,4.89639
2418,57137,1.1298,4.90205
2420,57192,1.12686,4.90752
2422,57252,1.12553,4.91348
2424,57309,1.12553,4.91924
2426,57366,1.12221,4.9249
2428,57423,1.12221,4.93057
2430,57478,1.11804,4.93613
2432,57538,1.11545,4.94209
2434,57593,1.11545,4.94766
2436,57648,1.11233,4.953125
2438,57706,1.11233,4.95889
2440,57761,1.11189,4.96436
2442,57819,1.11164,4.97021
2444,57876,1.11164,4.97588
2446,57936,1.10987,4.98193
2448,57991,1.10987,4.9874
2450,58050,1.10956,4.99307
2452,58106,1.10718,4.996875
2454,58221,1.10456,5.0