File: tensile_tests/04.06.25_WT_dry_idx2.csv
,Time,Force (Newtons),Distance (millimeters)
0,1,0.0523488,0.0
2,29,0.051017,0.0
4,55,0.051017,0.0
6,88,0.051017,0.0
8,117,0.0498265,0.0
10,146,0.0498265,0.0
12,175,0.0498265,0.0
14,206,0.0487458,0.0
16,238,0.0487458,0.0
18,267,0.0487458,0.0
20,295,0.0487458,0.0
22,325,0.0477622,0.0
24,354,0.0477622,0.0
26,385,0.0477622,0.0
28,410,0.0468453,0.0
30,439,0.0468453,0.0
32,469,0.0468453,0.0
34,498,0.045995,0.0
36,525,0.045995,0.0
38,553,0.045995,0.0
40,581,0.045995,0.0
42,610,0.0452174,0.0
44,640,0.0452174,0.0
46,674,0.0452174,0.0
48,704,0.0444799,0.0
50,735,0.0444799,0.0
52,763,0.0444799,0.0
54,791,0.0437797,0.0
56,822,0.0437797,0.0
58,855,0.0437797,0.0
60,885,0.0431305,0.0
62,914,0.0431305,0.0
64,942,0.0431305,0.0
66,971,0.0424941,0.0
68,1000,0.0424941,0.0
70,1031,0.0424941,0.0
72,1058,0.0424941,0.0
74,1091,0.0418841,0.0
76,1120,0.0418841,0.0
78,1152,0.0418841,0.0
80,1184,0.0413016,0.0
82,1213,0.0413016,0.0
84,1242,0.0413016,0.0
86,1270,0.04072,0.0
88,1338,0.04072,0.0
90,1364,0.0401562,0.0
92,1393,0.0401562,0.0
94,1422,0.0401562,0.0
96,1449,0.0396237,0.0
98,1476,0.0396237,0.0
100,1506,0.0396237,0.0
102,1536,0.0391019,0.0
104,1568,0.0391019,0.0
106,1593,0.0391019,0.0
108,1623,0.0391019,0.0
110,1653,0.038593,0.0
112,1682,0.038593,0.0
114,1710,0.038593,0.0
116,1737,0.0381193,0.0
118,1764,0.0381193,0.0
120,1794,0.0381193,0.0
122,1825,0.037626,0.0
124,1853,0.037626,0.0
126,1880,0.037626,0.0
128,1908,0.037626,0.0
130,1934,0.0371749,0.0
132,1960,0.0371749,0.0
134,1995,0.0371749,0.0
136,2026,0.0367523,0.0
138,2057,0.0367523,0.0
140,2085,0.0367523,0.0
142,2113,0.0363149,0.0
144,2141,0.0363149,0.0
146,2168,0.0363149,0.0
148,2194,0.0363149,0.0
150,2222,0.035905,0.0
152,2251,0.035905,0.0
154,2277,0.035905,0.0
156,2307,0.0354745,0.0
158,2334,0.0354745,0.0
160,2361,0.0354745,0.0
162,2386,0.0354745,0.0
164,2416,0.0350498,0.0
166,2446,0.0350498,0.0
168,2474,0.0350498,0.0
170,2501,0.0346291,0.0
172,2528,0.0346291,0.0
174,2555,0.0346291,0.0
176,2582,0.0342398,0.0
178,2609,0.0342398,0.0
180,2635,0.0342398,0.0
182,2663,0.0342398,0.0
184,2693,0.0338613,0.0
186,2724,0.0338613,0.0
188,2751,0.0338613,0.0
190,2778,0.0334592,0.0
192,2804,0.0334592,0.0
194,2831,0.0334592,0.0
196,2859,0.0334592,0.0
198,2885,0.0330954,0.0
200,2913,0.0330954,0.0
202,2940,0.0330954,0.0
204,2968,0.0327188,0.0
206,2996,0.0327188,0.0
208,3025,0.0327188,0.0
210,3056,0.0327188,0.0
212,3084,0.032351,0.0
214,3113,0.032351,0.0
216,3142,0.032351,0.0
218,3170,0.0320333,0.0
220,3197,0.0320333,0.0
222,3225,0.0320333,0.0
224,3251,0.0316862,0.0
226,3280,0.0316862,0.0
228,3373,0.0313586,0.0
230,3417,0.0313586,0.0
232,3445,0.0310448,0.0
234,3475,0.0310448,0.0
236,3501,0.0310448,0.0
238,3528,0.0310448,0.0
240,3557,0.0307173,0.0
242,3584,0.0307173,0.0
244,3610,0.0307173,0.0
246,3638,0.0304329,0.0
248,3663,0.0304329,0.0
250,3690,0.0304329,0.0
252,3718,0.0304329,0.0
254,3744,0.0301112,0.0
256,3770,0.0301112,0.0
258,3797,0.0301112,0.0
260,3824,0.0298092,0.0
262,3851,0.0298092,0.0
264,3878,0.0298092,0.0
266,3906,0.0298092,0.0
268,3932,0.0295091,0.0
270,3960,0.0295091,0.0
272,3992,0.0295091,0.0
274,4021,0.0291786,0.0
276,4048,0.0291786,0.0
278,4075,0.0291786,0.0
280,4108,0.0288932,0.0
282,4138,0.0288932,0.0
284,4164,0.0288932,0.0
286,4192,0.0288932,0.0
288,4218,0.0286,0.0
290,4244,0.0286,0.0
292,4273,0.0286,0.0
294,4301,0.0283097,0.0
296,4330,0.0283097,0.0
298,4356,0.0283097,0.0
300,4383,0.0283097,0.0
302,4411,0.0280283,0.0
304,4438,0.0280283,0.0
306,4465,0.0280283,0.0
308,4492,0.027739,0.0
310,4520,0.027739,0.0
312,4547,0.027739,0.0
314,4576,0.027739,0.0
316,4601,0.0274497,0.0
318,4630,0.0274497,0.0
320,4658,0.0274497,0.0
322,4686,0.0271604,0.0
324,4715,0.0271604,0.0
326,4744,0.0271604,0.0
328,4774,0.0268848,0.0
330,4806,0.0268848,0.0
332,4836,0.0268848,0.0
334,4865,0.0266161,0.0
336,4893,0.0266161,0.0
338,4925,0.0266161,0.0
340,4953,0.0266161,0.0
342,4981,0.0263543,0.0
344,5009,0.0263543,0.0
346,5036,0.0263543,0.0
348,5065,0.0260915,0.0
350,5091,0.0260915,0.0
352,5120,0.0260915,0.0
354,5147,0.0260915,0.0
356,5177,0.0258375,0.0
358,5204,0.0258375,0.0
360,5230,0.0258375,0.0
362,5257,0.0255894,0.0
364,5284,0.0255894,0.0
366,5314,0.0255894,0.0
368,5343,0.0253324,0.0
370,5375,0.0253324,0.0
372,5406,0.0253324,0.0
374,5435,0.0253324,0.0
376,5463,0.0250892,0.0
378,5493,0.0250892,0.0
380,5520,0.0250892,0.0
382,5547,0.0248401,0.0
384,5574,0.0248401,0.0
386,5601,0.0248401,0.0
388,5628,0.0245861,0.0
390,5658,0.0245861,0.0
392,5685,0.0245861,0.0
394,5712,0.0245861,0.0
396,5738,0.0243576,0.0
398,5766,0.0243576,0.0
400,5793,0.0243576,0.0
402,5820,0.0241174,0.0
404,5848,0.0241174,0.0
406,5878,0.0241174,0.0
408,5909,0.0241174,0.0
410,5940,0.023881,0.0
412,5971,0.023881,0.0
414,5998,0.023881,0.0
416,6027,0.0236692,0.0
418,6058,0.0236692,0.0
420,6085,0.0236692,0.0
422,6113,0.0234496,0.0
424,6141,0.0234496,0.0
426,6169,0.0234496,0.0
428,6195,0.0234496,0.0
430,6222,0.0232318,0.0
432,6251,0.0232318,0.0
434,6279,0.0232318,0.0
436,6305,0.02302,0.0
438,6330,0.02302,0.0
440,6359,0.02302,0.0
442,6386,0.02302,0.0
444,6411,0.0227896,0.0
446,6437,0.0227896,0.0
448,6463,0.0227896,0.0
450,6491,0.0225611,0.0
452,6524,0.0225611,0.0
454,6552,0.0225611,0.0
456,6580,0.0223522,0.0
458,6611,0.0223522,0.0
460,6640,0.0223522,0.0
462,6670,0.0223522,0.0
464,6696,0.0221306,0.0
466,6722,0.0221306,0.0
468,6749,0.0221306,0.0
470,6777,0.0219109,0.0
472,6809,0.0219109,0.0
474,6836,0.0219109,0.0
476,6867,0.0216932,0.0
478,6897,0.0216932,0.0
480,6927,0.0216932,0.0
482,6958,0.0214735,0.0
484,6987,0.0214735,0.0
486,7019,0.0214735,0.0
488,7050,0.0214735,0.0
490,7080,0.0212784,0.0
492,7109,0.0212784,0.0
494,7137,0.0212784,0.0
496,7164,0.0210744,0.0
498,7195,0.0210744,0.0
500,7244,0.0208724,9.765625e-05
502,7286,0.0208724,0.0001953125
504,7326,0.0208724,0.000390625
506,7371,0.0207037,0.0005859375
508,7421,0.0207037,0.0009765625
510,7463,0.0210881,0.00146484
512,7504,0.0210881,0.001953125
514,7549,0.0225199,0.00253906
516,7590,0.0225199,0.003125
518,7681,0.0248529,0.00488281
520,7725,0.0288677,0.00576172
522,7767,0.0288677,0.00673828
524,7806,0.0288677,0.00771484
526,7845,0.0349253,0.00878906
528,7886,0.0349253,0.00996094
530,7927,0.0433718,0.0111328
532,7967,0.0433718,0.0124023
534,8006,0.0553437,0.0136719
536,8048,0.0553437,0.0152344
538,8086,0.0553437,0.0166016
540,8129,0.0713482,0.0182617
542,8168,0.0713482,0.0198242
544,8206,0.0914528,0.0213867
546,8249,0.0914528,0.0233398
548,8291,0.115101,0.025293
550,8332,0.115101,0.0271484
552,8372,0.115101,0.0291992
554,8416,0.141325,0.0314453
556,8506,0.168455,0.0362305
558,8550,0.168455,0.0387695
560,8589,0.190947,0.0410156
562,8633,0.190947,0.0436523
564,8677,0.196111,0.0464844
566,8718,0.196111,0.0491211
568,8759,0.196111,0.0517578
570,8800,0.198381,0.0545898
572,8838,0.198381,0.0571289
574,8881,0.205802,0.0602539
576,8920,0.205802,0.0630859
578,8963,0.221068,0.0663086
580,9001,0.221068,0.0692383
582,9043,0.221068,0.0724609
584,9084,0.257157,0.07578125
586,9125,0.257157,0.0791016
588,9166,0.301663,0.0825195
590,9210,0.301663,0.0863281
592,9251,0.346298,0.0899414
594,9348,0.389975,0.0985352
596,9398,0.389975,0.10332
598,9438,0.433439,0.107031
600,9481,0.433439,0.11123
602,9522,0.433439,0.115332
604,9563,0.476453,0.119336
606,9605,0.476453,0.123633
608,9649,0.517981,0.128027
610,9690,0.517981,0.132129
612,9732,0.563187,0.13623
614,9773,0.563187,0.14043
616,9815,0.610149,0.144629
618,9854,0.610149,0.148535
620,9897,0.610149,0.152734
622,9936,0.656162,0.156738
624,9979,0.656162,0.1609375
626,10017,0.703655,0.164844
628,10058,0.703655,0.168848
630,10096,0.748039,0.172656
632,10135,0.748039,0.176562
634,10227,0.790802,0.18584
636,10267,0.790802,0.189844
638,10308,0.833474,0.193945
640,10348,0.833474,0.197852
642,10388,0.873327,0.201855
644,10429,0.873327,0.206055
646,10467,0.873327,0.209863
648,10512,0.914223,0.214355
650,10553,0.914223,0.218457
652,10596,0.952959,0.222656
654,10635,0.952959,0.2265625
656,10674,0.988071,0.230566
658,10715,0.988071,0.234668
660,10755,0.988071,0.238672
662,10797,1.02314,0.242773
664,10839,1.02314,0.24707
666,10883,1.055,0.251465
668,10923,1.055,0.255371
670,10966,1.08681,0.259668
672,11052,1.11866,0.268262
674,11101,1.11866,0.273242
676,11144,1.14726,0.277539
678,11184,1.14726,0.281543
680,11227,1.14726,0.28584
682,11267,1.17638,0.289844
684,11312,1.17638,0.294336
686,11352,1.20281,0.298242
688,11397,1.20281,0.302832
690,11503,1.22714,0.313477
692,11548,1.25117,0.317969
694,11588,1.25117,0.321875
696,11632,1.27104,0.32627
698,11671,1.27104,0.330273
700,11715,1.29095,0.33457
702,11755,1.29095,0.338574
704,11800,1.29095,0.343066
706,11841,1.31074,0.347168
708,11884,1.31074,0.351465
710,11921,1.32936,0.355273
712,11962,1.32936,0.359277
714,12055,1.34875,0.368555
716,12098,1.36478,0.372949
718,12139,1.36478,0.377051
720,12179,1.36478,0.381055
722,12219,1.37924,0.385059
724,12261,1.37924,0.38916
726,12302,1.39407,0.393262
728,12343,1.39407,0.397461
730,12384,1.40769,0.4015625
732,12429,1.40769,0.406055
734,12472,1.40769,0.410254
736,12517,1.42397,0.414746
738,12560,1.42397,0.419043
740,12603,1.43947,0.4234375
742,12646,1.43947,0.427637
744,12686,1.45269,0.431738
746,12730,1.45269,0.436035
748,12772,1.46684,0.440332
750,12813,1.46684,0.444434
752,12900,1.47881,0.453125
754,12945,1.47881,0.457617
756,12985,1.49167,0.461621
758,13029,1.49167,0.466016
760,13071,1.50556,0.470215
762,13114,1.50556,0.474512
764,13155,1.51769,0.478613
766,13198,1.51769,0.48291
768,13239,1.53218,0.486914
770,13282,1.53218,0.491309
772,13321,1.53218,0.495215
774,13366,1.54665,0.499707
776,13406,1.54665,0.503711
778,13450,1.56158,0.508105
780,13495,1.56158,0.512598
782,13538,1.57843,0.516895
784,13581,1.57843,0.521191
786,13622,1.59197,0.525293
788,13664,1.59197,0.529492
790,13705,1.59197,0.533594
792,13849,1.6192,0.547949
794,13891,1.6192,0.552246
796,13934,1.63165,0.556445
798,13972,1.63165,0.560352
800,14014,1.64691,0.564453
802,14055,1.64691,0.568652
804,14098,1.66099,0.572949
806,14142,1.66099,0.577344
808,14185,1.6744,0.581543
810,14227,1.6744,0.585742
812,14267,1.6744,0.589844
814,14308,1.68947,0.593945
816,14352,1.68947,0.598242
818,14396,1.7029,0.602734
820,14439,1.7029,0.606934
822,14482,1.71822,0.61123
824,14522,1.71822,0.615234
826,14565,1.73308,0.619629
828,14613,1.73308,0.624316
830,14700,1.74525,0.633105
832,14753,1.74525,0.638379
834,14797,1.75873,0.642773
836,14839,1.75873,0.646973
838,14883,1.77021,0.651367
840,14925,1.77021,0.655566
842,14966,1.78185,0.659668
844,15006,1.78185,0.66377
846,15049,1.7946,0.667969
848,15089,1.7946,0.671973
850,15135,1.7946,0.6765625
852,15178,1.8047,0.680859
854,15219,1.8047,0.684961
856,15262,1.81623,0.689258
858,15306,1.81623,0.693652
860,15350,1.82764,0.698145
862,15395,1.82764,0.702539
864,15434,1.8386,0.706543
866,15477,1.8386,0.710742
868,15519,1.85187,0.715039
870,15564,1.85187,0.719531
872,15669,1.86272,0.72998
874,15711,1.87381,0.734277
876,15753,1.87381,0.738379
878,15797,1.87381,0.742871
880,15839,1.88593,0.746973
882,15885,1.88593,0.751562
884,15929,1.89687,0.755957
886,15972,1.89687,0.760254
888,16015,1.9105,0.764648
890,16057,1.9105,0.768848
892,16103,1.923,0.77334
894,16147,1.923,0.777734
896,16189,1.93415,0.782031
898,16232,1.93415,0.786328
900,16277,1.93415,0.790723
902,16319,1.94731,0.794922
904,16362,1.94731,0.799316
906,16407,1.95908,0.803711
908,16453,1.95908,0.808301
910,16551,1.97299,0.816992
912,16595,1.98775,0.822559
914,16637,1.98775,0.826758
916,16680,1.99977,0.831055
918,16720,1.99977,0.835059
920,16764,2.01304,0.839551
922,16806,2.01304,0.843652
924,16853,2.02459,0.84834
926,16898,2.02459,0.85293
928,16939,2.02459,0.857031
930,16985,2.03593,0.861621
932,17030,2.03593,0.866113
934,17073,2.04871,0.8703125
936,17122,2.04871,0.875293
938,17171,2.05874,0.880176
940,17215,2.05874,0.88457
942,17260,2.07,0.88916
944,17305,2.07,0.893555
946,17348,2.08159,0.897949
948,17397,2.08159,0.902832
950,17494,2.09191,0.9125
952,17540,2.09855,0.91709
954,17583,2.09855,0.921387
956,17623,2.0934,0.925391
958,17667,2.0934,0.929785
960,17713,2.08795,0.934375
962,17755,2.08795,0.938672
964,17804,2.08633,0.943457
966,17849,2.08633,0.947949
968,17895,2.09116,0.952637
970,17938,2.09116,0.956836
972,17983,2.09116,0.961328
974,18029,2.10913,0.966016
976,18073,2.10913,0.9703125
978,18120,2.12735,0.975
980,18169,2.12735,0.97998
982,18216,2.14285,0.984668
984,18265,2.14285,0.989551
986,18306,2.15929,0.993652
988,18349,2.15929,0.998047
990,18455,2.17372,1.00859
992,18499,2.18943,1.01299
994,18546,2.18943,1.01768
996,18589,2.20566,1.02197
998,18638,2.20566,1.02695
1000,18683,2.21891,1.03135
1002,18725,2.21891,1.03555
1004,18767,2.23302,1.03984
1006,18811,2.23302,1.04414
1008,18857,2.24531,1.04883
1010,18906,2.24531,1.05371
1012,18952,2.25699,1.0583
1014,18996,2.25699,1.0627
1016,19040,2.27006,1.06709
1018,19082,2.27006,1.07129
1020,19127,2.27006,1.07578
1022,19175,2.28063,1.08057
1024,19222,2.28063,1.08525
1026,19267,2.29245,1.08975
1028,19364,2.30519,1.09443
1030,19411,2.30519,1.1042
1032,19454,2.31807,1.1085
1034,19499,2.31807,1.11299
1036,19540,2.33453,1.11709
1038,19587,2.33453,1.12178
1040,19633,2.34928,1.12637
1042,19681,2.34928,1.13115
1044,19729,2.36339,1.13604
1046,19773,2.36339,1.14043
1048,19819,2.37865,1.14502
1050,19866,2.37865,1.14961
1052,19909,2.39214,1.154
1054,19956,2.39214,1.15869
1056,20003,2.40802,1.16338
1058,20049,2.40802,1.16797
1060,20096,2.42375,1.17266
1062,20147,2.42375,1.17773
1064,20193,2.43791,1.18232
1066,20239,2.43791,1.18701
1068,20331,2.4544,1.19619
1070,20380,2.47009,1.20107
1072,20428,2.47009,1.20586
1074,20474,2.4878,1.21045
1076,20519,2.4878,1.21494
1078,20565,2.50681,1.21953
1080,20614,2.50681,1.22441
1082,20657,2.52268,1.22871
1084,20708,2.52268,1.23379
1086,20756,2.53938,1.23857
1088,20801,2.53938,1.24316
1090,20847,2.55463,1.24775
1092,20890,2.55463,1.25195
1094,20936,2.55463,1.25664
1096,20981,2.56961,1.26113
1098,21028,2.56961,1.26582
1100,21071,2.58701,1.27021
1102,21116,2.58701,1.27461
1104,21158,2.60231,1.27891
1106,21202,2.60231,1.2833
1108,21297,2.6186,1.29199
1110,21347,2.63598,1.29775
1112,21397,2.63598,1.30273
1114,21444,2.65285,1.30742
1116,21490,2.65285,1.31211
1118,21539,2.67315,1.31699
1120,21589,2.67315,1.32197
1122,21636,2.69235,1.32666
1124,21682,2.69235,1.33125
1126,21731,2.71052,1.33613
1128,21774,2.71052,1.34043
1130,21822,2.72956,1.34521
1132,21869,2.72956,1.35
1134,21912,2.7463,1.3542
1136,21957,2.7463,1.35879
1138,22001,2.76448,1.36318
1140,22049,2.76448,1.36797
1142,22093,2.78202,1.37236
1144,22140,2.78202,1.37705
1146,22189,2.7975,1.38193
1148,22285,2.81497,1.3915
1150,22334,2.81497,1.39639
1152,22380,2.83144,1.40107
1154,22424,2.83144,1.40547
1156,22469,2.84981,1.41006
1158,22552,2.84981,1.41826
1160,22617,2.87055,1.4248
1162,22671,2.88891,1.43018
1164,22718,2.88891,1.43486
1166,22765,2.90906,1.43955
1168,22810,2.90906,1.44404
1170,22854,2.92927,1.44844
1172,22897,2.92927,1.45283
1174,22991,2.94886,1.46221
1176,23040,2.97027,1.46709
1178,23089,2.97027,1.47197
1180,23137,2.98896,1.47676
1182,23182,2.98896,1.48125
1184,23232,3.00741,1.48623
1186,23280,3.00741,1.49111
1188,23324,3.02673,1.49541
1190,23431,3.0457,1.50605
1192,23481,3.0457,1.51123
1194,23528,3.06761,1.51582
1196,23576,3.06761,1.5207
1198,23622,3.08787,1.52529
1200,23668,3.08787,1.52988
1202,23713,3.10673,1.534375
1204,23757,3.10673,1.53877
1206,23807,3.12607,1.54375
1208,23854,3.12607,1.54854
1210,23901,3.14309,1.55322
1212,23946,3.14309,1.55771
1214,23993,3.16228,1.5624
1216,24043,3.16228,1.56738
1218,24087,3.18145,1.57178
1220,24136,3.18145,1.57666
1222,24183,3.19881,1.58135
1224,24231,3.19881,1.58613
1226,24279,3.21916,1.59092
1228,24374,3.23954,1.60049
1230,24422,3.23954,1.60527
1232,24471,3.26146,1.61016
1234,24517,3.26146,1.61475
1236,24562,3.28562,1.61924
1238,24610,3.28562,1.62412
1240,24657,3.3065,1.62871
1242,24705,3.3065,1.6335
1244,24752,3.32667,1.63818
1246,24797,3.32667,1.64277
1248,24841,3.34393,1.64717
1250,24893,3.34393,1.65234
1252,24941,3.35571,1.65713
1254,24992,3.35571,1.66221
1256,25042,3.36574,1.66719
1258,25091,3.36574,1.67207
1260,25138,3.37336,1.67686
1262,25186,3.37336,1.68164
1264,25236,3.38391,1.68662
1266,25284,3.38391,1.69141
1268,25381,3.40087,1.70117
1270,25434,3.42147,1.70645
1272,25483,3.42147,1.71133
1274,25531,3.44647,1.71621
1276,25575,3.44647,1.72051
1278,25620,3.47039,1.7251
1280,25668,3.47039,1.72988
1282,25718,3.49237,1.73486
1284,25766,3.49237,1.73955
1286,25811,3.51538,1.74414
1288,25858,3.51538,1.74883
1290,25907,3.53621,1.75381
1292,25957,3.53621,1.75879
1294,26003,3.55826,1.76338
1296,26050,3.55826,1.76807
1298,26096,3.58065,1.77266
1300,26143,3.58065,1.77734
1302,26189,3.60041,1.78193
1304,26239,3.60041,1.78691
1306,26287,3.62153,1.7918
1308,26385,3.64099,1.80156
1310,26441,3.64099,1.80713
1312,26491,3.65806,1.81221
1314,26541,3.65806,1.81719
1316,26587,3.6615,1.82178
1318,26638,3.6615,1.82686
1320,26690,3.64726,1.83203
1322,26738,3.64726,1.83682
1324,26787,3.63592,1.8418
1326,26836,3.63592,1.84668
1328,26888,3.63046,1.85176
1330,26939,3.64241,1.85693
1332,26988,3.64241,1.86182
1334,27035,3.67399,1.8665
1336,27085,3.67399,1.87158
1338,27133,3.70397,1.87627
1340,27184,3.70397,1.88145
1342,27233,3.73258,1.88633
1344,27282,3.73258,1.89121
1346,27332,3.7618,1.89619
1348,27382,3.7618,1.90127
1350,27495,3.78924,1.9125
1352,27543,3.81887,1.91738
1354,27591,3.81887,1.92207
1356,27638,3.84714,1.92686
1358,27687,3.84714,1.93174
1360,27737,3.87226,1.93672
1362,27788,3.89739,1.9418
1364,27839,3.89739,1.94688
1366,27891,3.91894,1.95215
1368,27936,3.91894,1.95664
1370,27982,3.90988,1.96123
1372,28030,3.90988,1.96611
1374,28077,3.6941,1.9708
1376,28127,3.6941,1.97578
1378,28175,3.32701,1.98057
1380,28224,3.32701,1.98545
1382,28271,2.9723,1.99014
1384,28321,2.9723,1.99512
1386,28369,2.66546,2.0
1388,28417,2.66546,2.00469
1390,28523,2.58163,2.01533
1392,28577,2.6624,2.0207
1394,28624,2.6624,2.02549
1396,28674,2.74259,2.03047
1398,28721,2.74259,2.03516
1400,28768,2.81686,2.03975
1402,28818,2.81686,2.04482
1404,28865,2.88586,2.04961
1406,28914,2.88586,2.05439
1408,28960,2.95022,2.05908
1410,29008,2.95022,2.06377
1412,29058,3.01399,2.06885
1414,29104,3.01399,2.07344
1416,29156,3.07313,2.07861
1418,29208,3.07313,2.08389
1420,29257,3.13003,2.08877
1422,29308,3.13003,2.09385
1424,29385,3.18606,2.10156
1426,29433,3.23897,2.10635
1428,29483,3.23897,2.11133
1430,29591,3.29323,2.12217
1432,29641,3.34514,2.12715
1434,29691,3.3931,2.13213
1436,29739,3.3931,2.13701
1438,29790,3.43059,2.14209
1440,29838,3.43059,2.146875
1442,29889,3.34049,2.15195
1444,29941,3.34049,2.15713
1446,29992,3.07984,2.1623
1448,30043,3.07984,2.16729
1450,30092,2.79753,2.17227
1452,30140,2.79753,2.17705
1454,30193,2.52986,2.18232
1456,30242,2.52986,2.18721
1458,30292,2.39639,2.19219
1460,30342,2.39639,2.19717
1462,30391,2.44055,2.20215
1464,30441,2.44055,2.20713
1466,30492,2.51436,2.21221
1468,30542,2.51436,2.21729
1470,30650,2.65851,2.22803
1472,30700,2.65851,2.23301
1474,30751,2.7256,2.23809
1476,30801,2.7256,2.24307
1478,30850,2.78937,2.24805
1480,30901,2.78937,2.253125
1482,30951,2.84977,2.25811
1484,31000,2.84977,2.26309
1486,31050,2.90991,2.26807
1488,31100,2.90991,2.27305
1490,31149,2.96518,2.27793
1492,31201,2.96518,2.28311
1494,31251,3.01647,2.28809
1496,31298,3.01647,2.29277
1498,31349,3.05276,2.29795
1500,31401,3.05276,2.303125
1502,31450,3.07008,2.30811
1504,31501,3.09049,2.31309
1506,31550,3.09049,2.31807
1508,31648,3.1139,2.32783
1510,31700,3.15107,2.33301
1512,31751,3.15107,2.33809
1514,31801,3.20675,2.34316
1516,31851,3.20675,2.34814
1518,31901,3.26051,2.353125
1520,31952,3.26051,2.3582
1522,32001,3.31399,2.36309
1524,32051,3.31399,2.36816
1526,32101,3.36681,2.37314
1528,32151,3.36681,2.37813
1530,32198,3.41627,2.38281
1532,32245,3.41627,2.3875
1534,32296,3.46638,2.39258
1536,32347,3.46638,2.39766
1538,32398,3.5144,2.40283
1540,32448,3.5144,2.40781
1542,32499,3.56195,2.41289
1544,32550,3.61067,2.41807
1546,32601,3.61067,2.42314
1548,32705,3.65512,2.4335
1550,32759,3.69844,2.43896
1552,32809,3.69844,2.44385
1554,32858,3.73948,2.44883
1556,32906,3.73948,2.45361
1558,32957,3.75079,2.45869
1560,33046,3.57583,2.46758
1562,33106,3.57583,2.47363
1564,33158,3.25356,2.47881
1566,33207,3.25356,2.48369
1568,33259,2.9355,2.48887
1570,33309,2.65877,2.49395
1572,33359,2.65877,2.49893
1574,33410,2.57767,2.5041
1576,33463,2.57767,2.50928
1578,33514,2.64935,2.51445
1580,33564,2.64935,2.51943
1582,33617,2.71637,2.52471
1584,33669,2.71637,2.52998
1586,33716,2.77129,2.53467
1588,33822,2.82496,2.54521
1590,33874,2.82496,2.55039
1592,33926,2.87878,2.55557
1594,33978,2.94043,2.56084
1596,34033,2.94043,2.56631
1598,34084,3.00628,2.57139
1600,34136,3.00628,2.57656
1602,34186,3.0692,2.58154
1604,34238,3.0692,2.58682
1606,34291,3.13264,2.59209
1608,34342,3.13264,2.59717
1610,34393,3.19406,2.60234
1612,34443,3.19406,2.60732
1614,34493,3.25492,2.6123
1616,34544,3.31666,2.61748
1618,34593,3.31666,2.62236
1620,34646,3.37391,2.62754
1622,34696,3.37391,2.63262
1624,34750,3.43005,2.63799
1626,34798,3.43005,2.64277
1628,34898,3.48451,2.65283
1630,34948,3.53644,2.65781
1632,35000,3.53644,2.66299
1634,35049,3.58967,2.66787
1636,35101,3.58967,2.67314
1638,35153,3.63981,2.67832
1640,35204,3.63981,2.6835
1642,35259,3.68828,2.68887
1644,35309,3.73707,2.69395
1646,35363,3.73707,2.69932
1648,35416,3.78331,2.70469
1650,35469,3.78331,2.70986
1652,35520,3.83085,2.71504
1654,35572,3.83085,2.72021
1656,35624,3.87629,2.72539
1658,35676,3.87629,2.73057
1660,35726,3.91747,2.73564
1662,35776,3.91747,2.74062
1664,35828,3.95818,2.7458
1666,35927,3.99546,2.75117
1668,35984,4.03222,2.76133
1670,36036,4.03222,2.7666
1672,36087,4.06841,2.77168
1674,36139,4.06841,2.77695
1676,36193,4.10021,2.78232
1678,36247,4.10021,2.7877
1680,36300,4.1314,2.79307
1682,36351,4.14694,2.79814
1684,36402,4.14694,2.80322
1686,36454,3.96132,2.8084
1688,36503,3.96132,2.81338
1690,36553,3.48694,2.81826
1692,36605,3.48694,2.82344
1694,36653,2.98204,2.82832
1696,36703,2.98204,2.8333
1698,36755,2.51083,2.83848
1700,36809,2.51083,2.84385
1702,36860,2.25563,2.84893
1704,36906,2.25563,2.85361
1706,37006,2.30348,2.86367
1708,37070,2.39364,2.86992
1710,37121,2.47289,2.8752
1712,37175,2.47289,2.88057
1714,37230,2.54626,2.88594
1716,37280,2.54626,2.89092
1718,37331,2.61684,2.89609
1720,37384,2.61684,2.90137
1722,37434,2.68327,2.90645
1724,37485,2.68327,2.91152
1726,37535,2.75027,2.91641
1728,37587,2.81476,2.92178
1730,37638,2.81476,2.92676
1732,37686,2.87545,2.93164
1734,37739,2.87545,2.93682
1736,37793,2.93545,2.94229
1738,37848,2.93545,2.94785
1740,37902,2.99162,2.953125
1742,37954,2.99162,2.9583
1744,38010,3.04498,2.96396
1746,38067,3.07858,2.96973
1748,38176,3.08849,2.98057
1750,38231,3.08849,2.98604
1752,38286,3.06871,2.9916
1754,38337,3.06871,2.99678
1756,38393,2.92906,3.00225
1758,38447,2.76236,3.00771
1760,38501,2.76236,3.01309
1762,38553,2.62806,3.01826
1764,38605,2.62806,3.02354
1766,38660,2.53066,3.02891
1768,38708,2.53066,3.03379
1770,38759,2.5621,3.03887
1772,38809,2.5621,3.04395
1774,38860,2.6461,3.04902
1776,38914,2.6461,3.05439
1778,38968,2.72437,3.05977
1780,39021,2.80081,3.06504
1782,39073,2.80081,3.07031
1784,39126,2.872,3.07559
1786,39231,2.93945,3.08613
1788,39286,2.93945,3.0916
1790,39336,3.00528,3.09648
1792,39385,3.00528,3.10146
1794,39447,3.06668,3.10762
1796,39518,3.12544,3.11484
1798,39586,3.12337,3.12158
1800,39685,2.99232,3.13145
1802,39801,2.83942,3.14297
1804,39916,2.69606,3.15342
1806,39986,2.61928,3.16152
1808,40034,2.61928,3.16641
1810,40081,2.67464,3.17119
1812,40133,2.67464,3.17637
1814,40184,2.74786,3.18135
1816,40232,2.74786,3.18623
1818,40282,2.74971,3.19131
1820,40334,2.74971,3.19648
1822,40385,2.67937,3.20146
1824,40434,2.67937,3.20645
1826,40484,2.60639,3.21133
1828,40596,2.54637,3.22266
1830,40643,2.55401,3.22734
1832,40693,2.55401,3.23232
1834,40744,2.63118,3.2374
1836,40794,2.63118,3.24248
1838,40846,2.70866,3.24756
1840,40893,2.70866,3.25234
1842,40942,2.77793,3.25723
1844,40992,2.77793,3.26221
1846,41041,2.84285,3.26709
1848,41090,2.84285,3.27197
1850,41140,2.89696,3.27695
1852,41188,2.89696,3.28174
1854,41288,2.93544,3.2918
1856,41342,2.96852,3.29717
1858,41401,3.0024,3.30303
1860,41450,3.0024,3.30801
1862,41502,3.04503,3.31318
1864,41554,3.04503,3.31836
1866,41667,3.10076,3.32969
1868,41730,3.16064,3.33604
1870,41785,3.22069,3.3415
1872,41838,3.22069,3.34678
1874,41894,3.27726,3.35244
1876,41948,3.27726,3.35781
1878,42003,3.33318,3.36328
1880,42055,3.33318,3.36846
1882,42111,3.38918,3.37412
1884,42168,3.44158,3.37979
1886,42218,3.44158,3.38477
1888,42271,3.49462,3.39004
1890,42327,3.49462,3.3957
1892,42383,3.54635,3.40117
1894,42437,3.5968,3.40664
1896,42491,3.5968,3.41201
1898,42544,3.64851,3.41738
1900,42598,3.64851,3.42275
1902,42651,3.69596,3.42803
1904,42705,3.69596,3.4335
1906,42759,3.74155,3.43887
1908,42869,3.78557,3.4498
1910,42922,3.82597,3.45508
1912,42974,3.82597,3.46035
1914,43032,3.8668,3.46621
1916,43087,3.8668,3.47168
1918,43141,3.90459,3.47705
1920,43198,3.93967,3.48281
1922,43254,3.93967,3.48828
1924,43308,3.9751,3.49365
1926,43364,3.9751,3.49941
1928,43417,4.00764,3.50469
1930,43471,4.00764,3.51006
1932,43528,4.04065,3.51572
1934,43584,4.07212,3.52139
1936,43638,4.07212,3.52676
1938,43693,4.09864,3.53232
1940,43748,4.09864,3.53779
1942,43802,4.12361,3.54316
1944,43855,4.12361,3.54844
1946,43959,4.14381,3.55889
1948,44018,4.16071,3.56475
1950,44071,4.17521,3.57012
1952,44126,4.17521,3.57559
1954,44218,4.18342,3.58477
1956,44270,4.18901,3.58994
1958,44323,4.18901,3.59531
1960,44378,4.18468,3.60078
1962,44438,4.07189,3.60674
1964,44498,4.07189,3.61279
1966,44552,3.7389,3.61816
1968,44608,3.7389,3.62373
1970,44664,3.35491,3.6293
1972,44718,3.35491,3.63477
1974,44770,3.00043,3.63994
1976,44822,2.77294,3.64512
1978,44878,2.77294,3.65078
1980,44931,2.7836,3.65615
1982,44987,2.7836,3.66162
1984,45043,2.8614,3.66729
1986,45156,2.93003,3.67861
1988,45210,2.99126,3.68398
1990,45267,2.99126,3.68965
1992,45320,3.04985,3.69492
1994,45375,3.04985,3.70049
1996,45432,3.1041,3.70615
1998,45486,3.15822,3.71152
2000,45541,3.15822,3.71699
2002,45595,3.21024,3.72246
2004,45646,3.21024,3.72754
2006,45697,3.25709,3.73271
2008,45754,3.25709,3.73828
2010,45808,3.30242,3.74375
2012,45861,3.30242,3.74902
2014,45919,3.34359,3.75479
2016,45970,3.38312,3.75996
2018,46022,3.38312,3.76514
2020,46074,3.42198,3.77041
2022,46134,3.42198,3.77627
2024,46188,3.45581,3.78174
2026,46299,3.48841,3.79287
2028,46354,3.51873,3.79834
2030,46413,3.51873,3.8042
2032,46468,3.54664,3.80977
2034,46522,3.54664,3.81514
2036,46574,3.57552,3.82031
2038,46627,3.60009,3.82568
2040,46684,3.60009,3.83135
2042,46738,3.62151,3.83682
2044,46794,3.62151,3.84238
2046,46853,3.64065,3.84824
2048,46907,3.64065,3.85361
2050,46960,3.6553,3.85898
2052,47012,3.6696,3.86416
2054,47067,3.6696,3.86973
2056,47121,3.68035,3.8751
2058,47177,3.68035,3.88066
2060,47235,3.68728,3.88643
2062,47287,3.68728,3.8917
2064,47341,3.69331,3.89697
2066,47458,3.69498,3.90879
2068,47514,3.69604,3.91436
2070,47568,3.69604,3.91973
2072,47622,3.69527,3.9251
2074,47672,3.68927,3.93018
2076,47725,3.68927,3.93545
2078,47784,3.68223,3.94141
2080,47838,3.68223,3.94678
2082,47890,3.6711,3.95195
2084,47948,3.6711,3.95771
2086,48003,3.65688,3.96328
2088,48062,3.64093,3.96914
2090,48119,3.64093,3.9748
2092,48173,3.61911,3.98027
2094,48283,3.5964,3.99121
2096,48344,3.57374,3.99746
2098,48401,3.57374,4.00303
2100,48454,3.55164,4.0083
2102,48507,3.55164,4.01367
2104,48566,3.53399,4.01953
2106,48625,3.51494,4.02549
2108,48685,3.51494,4.03145
2110,48740,3.49494,4.03691
2112,48798,3.49494,4.04277
2114,48854,3.47503,4.04834
2116,48908,3.45307,4.05381
2118,48970,3.45307,4.05986
2120,49024,3.4338,4.06543
2122,49079,3.4338,4.0709
2124,49132,3.41457,4.07617
2126,49186,3.41457,4.08154
2128,49237,3.39487,4.08662
2130,49293,3.37757,4.09219
2132,49347,3.37757,4.09766
2134,49405,3.3591,4.10352
2136,49458,3.3591,4.10869
2138,49514,3.34248,4.11436
2140,49571,3.3262,4.12002
2142,49625,3.3262,4.12539
2144,49678,3.30631,4.13076
2146,49734,3.30631,4.13633
2148,49838,3.2865,4.14609
2150,49893,3.26469,4.15225
2152,49949,3.26469,4.15781
2154,50004,3.24293,4.16328
2156,50058,3.22332,4.16875
2158,50115,3.22332,4.17451
2160,50172,3.20217,4.18018
2162,50227,3.20217,4.18564
2164,50281,3.18309,4.19102
2166,50332,3.18309,4.19609
2168,50387,3.16473,4.20156
2170,50438,3.14624,4.20674
2172,50494,3.14624,4.2124
2174,50555,3.13095,4.21846
2176,50618,3.11384,4.22471
2178,50671,3.11384,4.23008
2180,50730,3.09687,4.23604
2182,50784,3.09687,4.24141
2184,50838,3.08145,4.24668
2186,50894,3.08145,4.25234
2188,50950,3.065,4.25791
2190,51007,3.05126,4.26367
2192,51066,3.05126,4.26953
2194,51119,3.03704,4.2749
2196,51174,3.03704,4.28037
2198,51229,3.02179,4.28594
2200,51287,3.00895,4.2917
2202,51344,3.00895,4.29736
2204,51405,2.99552,4.30342
2206,51466,2.99552,4.30957
2208,51521,2.98483,4.31514
2210,51577,2.97557,4.32061
2212,51632,2.97557,4.32617
2214,51686,2.96384,4.33154
2216,51740,2.96384,4.33691
2218,51789,2.95298,4.34189
2220,51842,2.95298,4.34707
2222,51901,2.93955,4.35303
2224,51955,2.92452,4.3585
2226,52011,2.92452,4.36406
2228,52070,2.90927,4.36992
2230,52129,2.90927,4.37588
2232,52183,2.89033,4.38125
2234,52236,2.8723,4.38652
2236,52290,2.8723,4.39189
2238,52349,2.85507,4.39785
2240,52405,2.85507,4.40352
2242,52461,2.83857,4.40908
2244,52512,2.83857,4.41416
2246,52570,2.8264,4.41992
2248,52624,2.81336,4.42539
2250,52679,2.81336,4.43076
2252,52734,2.80073,4.43633
2254,52790,2.80073,4.44199
2256,52850,2.78957,4.44795
2258,52901,2.77683,4.45303
2260,52956,2.77683,4.4585
2262,53010,2.76626,4.46396
2264,53065,2.76626,4.46943
2266,53121,2.75481,4.475
2268,53175,2.75481,4.48047
2270,53227,2.7419,4.48564
2272,53334,2.7308,4.49639
2274,53389,2.7187,4.50186
2276,53446,2.7187,4.50752
2278,53503,2.70902,4.51328
2280,53557,2.70902,4.51865
2282,53615,2.70041,4.52451
2284,53670,2.68934,4.52998
2286,53728,2.68934,4.53574
2288,53784,2.67987,4.54141
2290,53841,2.67987,4.54697
2292,53895,2.66957,4.55244
2294,53949,2.66021,4.55781
2296,54004,2.66021,4.56328
2298,54058,2.65348,4.56875
2300,54113,2.65348,4.57422
2302,54171,2.64444,4.58008
2304,54228,2.64444,4.58574
2306,54285,2.63628,4.5915
2308,54341,2.62805,4.59697
2310,54401,2.62805,4.60303
2312,54457,2.61862,4.60859
2314,54511,2.61862,4.61406
2316,54566,2.6121,4.61963
2318,54621,2.60386,4.625
2320,54679,2.60386,4.63086
2322,54739,2.59535,4.63682
2324,54804,2.5885,4.64336
2326,54863,2.5885,4.64932
2328,54921,2.58081,4.65498
2330,54977,2.58081,4.66064
2332,55033,2.57626,4.66631
2334,55092,2.57186,4.67217
2336,55147,2.57186,4.67764
2338,55211,2.56648,4.68408
2340,55268,2.56648,4.68975
2342,55324,2.56283,4.69531
2344,55381,2.55757,4.70107
2346,55438,2.55757,4.70674
2348,55496,2.55365,4.7125
2350,55555,2.55365,4.71836
2352,55616,2.54974,4.72451
2354,55674,2.54248,4.73037
2356,55728,2.54248,4.73574
2358,55788,2.53609,4.7417
2360,55843,2.53609,4.74727
2362,55901,2.52824,4.75303
2364,55958,2.52073,4.75869
2366,56012,2.52073,4.76416
2368,56068,2.51553,4.76973
2370,56123,2.51553,4.7752
2372,56183,2.50786,4.78125
2374,56237,2.50058,4.78662
2376,56292,2.50058,4.79209
2378,56353,2.49267,4.79824
2380,56409,2.49267,4.80381
2382,56463,2.48298,4.80918
2384,56521,2.47556,4.81494
2386,56577,2.47556,4.8207
2388,56636,2.46619,4.82656
2390,56691,2.46619,4.83203
2392,56747,2.45604,4.8377
2394,56804,2.44686,4.84326
2396,56858,2.44686,4.84873
2398,56914,2.43566,4.8543
2400,56970,2.43566,4.85996
2402,57029,2.4265,4.86582
2404,57082,2.4265,4.87119
2406,57138,2.41734,4.87676
2408,57267,2.40712,4.88955
2410,57322,2.39938,4.89512
2412,57376,2.39061,4.90059
2414,57432,2.39061,4.90615
2416,57485,2.3833,4.91143
2418,57539,2.3833,4.9168
2420,57597,2.37634,4.92266
2422,57647,2.37634,4.92764
2424,57698,2.36564,4.93271
2426,57755,2.35543,4.93838
2428,57812,2.35543,4.94414
2430,57868,2.34394,4.94971
2432,57924,2.34394,4.95527
2434,57983,2.33261,4.96123
2436,58041,2.32399,4.96709
2438,58103,2.32399,4.97314
2440,58159,2.31429,4.97891
2442,58215,2.31429,4.984375
2444,58271,2.30671,4.98994
2446,58325,2.30062,4.99463
2448,58386,2.30062,4.99814
2450,58439,2.29401,4.9998
2451,58471,2.29401,5.0